

# ING Filter Throughput Data
# Serial Number : 61
# Filtername    : H6570
# Filtersystem  : Narrow Band
# Passband      : Halpha 6570/55
# FWHM          : 55
# Cosmetics     : A wide margin around all 4 edges of filter shows degraded transmission but no spectral leak has been detected.
The wavelength values painted on the filter edge ("5565/60") do NOT correspond with measured values or filter name. The filter ID 61 is barely legible. 
# Measured      : 2010-12-23 12:29:55
# Wavelength Throughput
# nm %
640 0
640.1 0
640.2 0
640.3 0
640.4 0
640.5 0
640.6 0
640.7 0
640.8 0
640.9 0
641 0
641.1 -2.14e-05
641.2 0
641.3 0
641.4 0
641.5 0
641.6 0
641.7 0
641.8 0
641.9 0
642 0
642.1 0
642.2 0
642.3 0
642.4 0
642.5 0
642.6 0
642.7 0
642.8 0
642.9 0
643 0
643.1 0
643.2 0
643.3 0
643.4 0
643.5 0
643.6 0
643.7 0
643.8 0
643.9 0
644 0
644.1 0
644.2 0
644.3 0
644.4 0
644.5 4.67e-05
644.6 0
644.7 0
644.8 0.01
644.9 0
645 0
645.1 0.01
645.2 0
645.3 0
645.4 0
645.5 0.01
645.6 0.01
645.7 0
645.8 0.01
645.9 0.01
646 0.01
646.1 0.01
646.2 0.01
646.3 0.01
646.4 0.01
646.5 0.01
646.6 0.01
646.7 0.01
646.8 0.01
646.9 0.01
647 0.01
647.1 0.01
647.2 0.01
647.3 0.01
647.4 0.02
647.5 0.01
647.6 0.01
647.7 0.01
647.8 0.02
647.9 0.01
648 0.02
648.1 0.02
648.2 0.02
648.3 0.02
648.4 0.02
648.5 0.02
648.6 0.02
648.7 0.02
648.8 0.03
648.9 0.03
649 0.03
649.1 0.03
649.2 0.03
649.3 0.03
649.4 0.03
649.5 0.04
649.6 0.04
649.7 0.05
649.8 0.05
649.9 0.05
650 0.05
650.1 0.05
650.2 0.06
650.3 0.06
650.4 0.07
650.5 0.07
650.6 0.08
650.7 0.09
650.8 0.1
650.9 0.1
651 0.12
651.1 0.12
651.2 0.12
651.3 0.13
651.4 0.16
651.5 0.17
651.6 0.2
651.7 0.22
651.8 0.24
651.9 0.27
652 0.29
652.1 0.32
652.2 0.37
652.3 0.42
652.4 0.47
652.5 0.53
652.6 0.61
652.7 0.7
652.8 0.8
652.9 0.9
653 1.06
653.1 1.24
653.2 1.41
653.3 1.65
653.4 1.95
653.5 2.3
653.6 2.73
653.7 3.22
653.8 3.79
653.9 4.61
654 5.54
654.1 6.65
654.2 8.02
654.3 9.75
654.4 11.48
654.5 13.72
654.6 16.26
654.7 19.38
654.8 22.29
654.9 25.64
655 29.16
655.1 32.58
655.2 35.95
655.3 38.25
655.4 40.68
655.5 42.87
655.6 44.55
655.7 45.5
655.8 46.51
655.9 46.86
656 47.63
656.1 47.83
656.2 47.41
656.3 47.6
656.4 47.94
656.5 47.37
656.6 47.9
656.7 47.73
656.8 47.71
656.9 48.07
657 47.7
657.1 47.58
657.2 47.02
657.3 47.17
657.4 46.74
657.5 46.37
657.6 45.65
657.7 45.62
657.8 45.33
657.9 44.86
658 44.21
658.1 43.64
658.2 43.68
658.3 43.44
658.4 43.24
658.5 43.04
658.6 43.09
658.7 43.2
658.8 43.25
658.9 43.25
659 43.47
659.1 43.67
659.2 43.72
659.3 43.58
659.4 43.81
659.5 42.96
659.6 42.09
659.7 40.32
659.8 38.17
659.9 35.41
660 32.4
660.1 29.42
660.2 26.28
660.3 22.87
660.4 19.91
660.5 17.07
660.6 14.69
660.7 12.29
660.8 10.6
660.9 8.96
661 7.72
661.1 6.52
661.2 5.53
661.3 4.76
661.4 4.03
661.5 3.44
661.6 3.02
661.7 2.6
661.8 2.23
661.9 1.89
662 1.68
662.1 1.47
662.2 1.27
662.3 1.09
662.4 0.98
662.5 0.86
662.6 0.77
662.7 0.67
662.8 0.6
662.9 0.53
663 0.47
663.1 0.42
663.2 0.37
663.3 0.33
663.4 0.3
663.5 0.29
663.6 0.25
663.7 0.22
663.8 0.21
663.9 0.18
664 0.17
664.1 0.14
664.2 0.15
664.3 0.13
664.4 0.12
664.5 0.12
664.6 0.1
664.7 0.09
664.8 0.08
664.9 0.09
665 0.08
665.1 0.07
665.2 0.07
665.3 0.06
665.4 0.05
665.5 0.05
665.6 0.05
665.7 0.05
665.8 0.03
665.9 0.04
666 0.04
666.1 0.03
666.2 0.03
666.3 0.03
666.4 0.03
666.5 0.03
666.6 0.02
666.7 0.02
666.8 0.02
666.9 0.02
667 0.02
667.1 0.02
667.2 0.02
667.3 0.02
667.4 0.01
667.5 0.02
667.6 0.02
667.7 0.01
667.8 0.01
667.9 0.01
668 0.01
668.1 0.01
668.2 0.01
668.3 0.01
668.4 0.01
668.5 0
668.6 0.01
668.7 0
668.8 0
668.9 0.01
669 0.01
669.1 0.01
669.2 0.01
669.3 0
669.4 0
669.5 0
669.6 0.01
669.7 0.01
669.8 0
669.9 0
670 0.01
