

# ING Filter Throughput Data
# Serial Number : 63
# Filtername    : H6594
# Filtersystem  : Narrow Band
# Passband      : Halpha 6594/44
# FWHM          : 44
# Cosmetics     : 
# Measured      : 2010-07-06 12:31:57
# Wavelength Throughput
# nm %
645 1.36826e-05
645.1 0.000991343
645.2 8.97088e-05
645.3 0.000638531
645.4 0.00060049
645.5 0.000850739
645.6 0.000980475
645.7 0.00100546
645.8 0.00100908
645.9 0.00124433
646 0.00150074
646.1 0.00219585
646.2 0.00139314
646.3 0.0027758
646.4 0.000801039
646.5 0.00199608
646.6 0.0020923
646.7 0.00285269
646.8 0.00287293
646.9 0.00306585
647 0.00216918
647.1 0.00287431
647.2 0.00311431
647.3 0.00294114
647.4 0.00382268
647.5 0.0024863
647.6 0.00272727
647.7 0.00426282
647.8 0.00470785
647.9 0.00376395
648 0.00435566
648.1 0.00388122
648.2 0.00570078
648.3 0.00425395
648.4 0.0045197
648.5 0.00541596
648.6 0.00584205
648.7 0.00499105
648.8 0.00527967
648.9 0.00533461
649 0.00761428
649.1 0.00651165
649.2 0.00913355
649.3 0.0089163
649.4 0.00855096
649.5 0.00947292
649.6 0.00855457
649.7 0.00957234
649.8 0.00990771
649.9 0.0125896
650 0.0120992
650.1 0.0130428
650.2 0.0131788
650.3 0.0151091
650.4 0.0149012
650.5 0.0129629
650.6 0.0166147
650.7 0.0162646
650.8 0.0183085
650.9 0.0196199
651 0.0188633
651.1 0.020185
651.2 0.0233667
651.3 0.0246847
651.4 0.0247113
651.5 0.0275734
651.6 0.0273061
651.7 0.0313104
651.8 0.0322399
651.9 0.0348699
652 0.0395053
652.1 0.0402434
652.2 0.0451333
652.3 0.0517278
652.4 0.0513463
652.5 0.0573848
652.6 0.059915
652.7 0.0660299
652.8 0.0712477
652.9 0.0769299
653 0.0816787
653.1 0.087534
653.2 0.100257
653.3 0.105302
653.4 0.11631
653.5 0.130066
653.6 0.139499
653.7 0.15449
653.8 0.169157
653.9 0.188344
654 0.206122
654.1 0.23071
654.2 0.253382
654.3 0.282341
654.4 0.31629
654.5 0.359506
654.6 0.401932
654.7 0.445582
654.8 0.510142
654.9 0.568852
655 0.634292
655.1 0.72833
655.2 0.818858
655.3 0.945282
655.4 1.07882
655.5 1.22383
655.6 1.40167
655.7 1.63579
655.8 1.88529
655.9 2.13548
656 2.4853
656.1 2.88319
656.2 3.32889
656.3 3.86083
656.4 4.54867
656.5 5.31682
656.6 6.12529
656.7 7.13466
656.8 8.26288
656.9 9.62254
657 11.1733
657.1 12.9679
657.2 15.0925
657.3 17.2578
657.4 19.6501
657.5 22.0728
657.6 24.761
657.7 27.7209
657.8 30.5881
657.9 33.394
658 36.1122
658.1 38.7647
658.2 40.9744
658.3 43.0902
658.4 44.7054
658.5 46.4075
658.6 47.5943
658.7 48.6774
658.8 49.475
658.9 50.377
659 50.5638
659.1 51.008
659.2 51.2938
659.3 51.5761
659.4 51.4399
659.5 51.6943
659.6 52.014
659.7 51.89
659.8 52.0991
659.9 52.0771
660 52.377
660.1 52.486
660.2 52.4922
660.3 52.5538
660.4 52.8443
660.5 52.8234
660.6 52.5672
660.7 52.5114
660.8 51.9427
660.9 51.0988
661 49.9873
661.1 48.1966
661.2 46.1911
661.3 43.4092
661.4 40.4703
661.5 37.2107
661.6 33.9442
661.7 29.9677
661.8 26.32
661.9 23.1817
662 19.9779
662.1 17.0309
662.2 14.6024
662.3 12.4753
662.4 10.614
662.5 9.00548
662.6 7.64947
662.7 6.53149
662.8 5.57596
662.9 4.74967
663 4.12539
663.1 3.52471
663.2 3.07169
663.3 2.64364
663.4 2.27767
663.5 1.98751
663.6 1.72617
663.7 1.48663
663.8 1.29769
663.9 1.1358
664 1.00755
664.1 0.889596
664.2 0.778685
664.3 0.689309
664.4 0.611442
664.5 0.545148
664.6 0.482733
664.7 0.435867
664.8 0.388783
664.9 0.339142
665 0.311097
665.1 0.275867
665.2 0.248979
665.3 0.228544
665.4 0.206752
665.5 0.192219
665.6 0.171279
665.7 0.156806
665.8 0.140466
665.9 0.126281
666 0.11488
666.1 0.108239
666.2 0.0946142
666.3 0.0941252
666.4 0.086171
666.5 0.0744846
666.6 0.0739365
666.7 0.0637868
666.8 0.0619782
666.9 0.0565065
667 0.0533837
667.1 0.0487572
667.2 0.0450266
667.3 0.042724
667.4 0.0435416
667.5 0.0374145
667.6 0.0326279
667.7 0.0296364
667.8 0.0282719
667.9 0.0268128
668 0.0274002
668.1 0.0243802
668.2 0.0204048
668.3 0.0190644
668.4 0.0177475
668.5 0.0219562
668.6 0.0172657
668.7 0.01809
668.8 0.014586
668.9 0.0141367
669 0.0136354
669.1 0.0117838
669.2 0.0103033
669.3 0.0110838
669.4 0.0105761
669.5 0.0106707
669.6 0.00860888
669.7 0.00886051
669.8 0.00798331
669.9 0.00921701
670 0.00768039
670.1 0.0050983
670.2 0.00808741
670.3 0.00741434
670.4 0.0068968
670.5 0.00406046
670.6 0.00654342
670.7 0.00399905
670.8 0.00491907
670.9 0.00461687
671 0.00495763
671.1 0.00681617
671.2 0.00626483
671.3 0.00526705
671.4 0.00405455
671.5 0.00457274
671.6 0.00435667
671.7 0.00386243
671.8 0.00443808
671.9 0.00443391
672 0.00454986
672.1 0.00397764
672.2 0.00262168
672.3 0.00395138
672.4 0.00323525
672.5 0.00238607
672.6 0.00332253
672.7 0.00304456
672.8 0.00218
672.9 0.00221502
673 0.00204216
673.1 0.000946681
673.2 0.00223327
673.3 0.00236028
673.4 0.0016423
673.5 0.00184873
673.6 0.000887371
673.7 0.000744413
673.8 0.00204518
673.9 0.00229655
674 0.00179161
674.1 0.00151773
674.2 0.00100643
674.3 0.000825496
674.4 0.00103583
674.5 0.000674927
674.6 0.000735285
674.7 7.9292e-05
674.8 0.00170417
674.9 0.000477426
675 0.000240239
