

# ING Filter Throughput Data
# Serial Number : 71
# Filtername    : H6712
# Filtersystem  : Narrow Band
# Passband      : Halpha 6712/42
# FWHM          : 42
# Cosmetics     : 
# Measured      : 2010-04-07 15:37:07
# Wavelength Throughput
# nm %
660 0.0042494
660.1 0.00452976
660.2 0.00432957
660.3 0.00471081
660.4 0.00457622
660.5 0.00496385
660.6 0.00560511
660.7 0.0051517
660.8 0.00561303
660.9 0.00617294
661 0.006167
661.1 0.00668443
661.2 0.00724545
661.3 0.00696167
661.4 0.00758684
661.5 0.00776179
661.6 0.00815191
661.7 0.00846611
661.8 0.00858885
661.9 0.00937461
662 0.00969345
662.1 0.0107495
662.2 0.010497
662.3 0.0113064
662.4 0.0122178
662.5 0.0123954
662.6 0.0135631
662.7 0.0136268
662.8 0.0146387
662.9 0.015449
663 0.0158435
663.1 0.0165935
663.2 0.0171884
663.3 0.0183225
663.4 0.0191516
663.5 0.0201012
663.6 0.0218449
663.7 0.0231685
663.8 0.0244236
663.9 0.0262296
664 0.0273529
664.1 0.0298639
664.2 0.0309122
664.3 0.0325984
664.4 0.0344285
664.5 0.0379177
664.6 0.0404276
664.7 0.0435452
664.8 0.0466278
664.9 0.0497467
665 0.053675
665.1 0.0581622
665.2 0.0633668
665.3 0.0693928
665.4 0.075049
665.5 0.0817566
665.6 0.0880468
665.7 0.0981923
665.8 0.106594
665.9 0.118476
666 0.130375
666.1 0.144928
666.2 0.161629
666.3 0.179121
666.4 0.201861
666.5 0.227537
666.6 0.261233
666.7 0.293349
666.8 0.334856
666.9 0.387897
667 0.445918
667.1 0.511338
667.2 0.596052
667.3 0.697028
667.4 0.826358
667.5 0.971162
667.6 1.16181
667.7 1.39993
667.8 1.67507
667.9 1.99151
668 2.39841
668.1 2.89733
668.2 3.51194
668.3 4.20837
668.4 5.06388
668.5 6.07478
668.6 7.18621
668.7 8.35457
668.8 9.70793
668.9 11.259
669 12.9417
669.1 14.6528
669.2 16.5789
669.3 18.6094
669.4 20.6419
669.5 22.6431
669.6 24.7394
669.7 26.9282
669.8 29.1247
669.9 31.1957
670 33.2615
670.1 35.2659
670.2 37.0953
670.3 38.6948
670.4 40.2879
670.5 41.7195
670.6 43.0389
670.7 44.1036
670.8 45.0782
670.9 45.9313
671 46.6015
671.1 47.1294
671.2 47.5542
671.3 47.8405
671.4 48.056
671.5 48.1523
671.6 48.1408
671.7 48.0338
671.8 47.8288
671.9 47.5629
672 47.2087
672.1 46.7442
672.2 46.199
672.3 45.5627
672.4 44.8557
672.5 43.9889
672.6 43.0731
672.7 42.1135
672.8 41.0061
672.9 39.7936
673 38.4337
673.1 37.1191
673.2 35.591
673.3 33.987
673.4 32.3562
673.5 30.7866
673.6 29.1247
673.7 27.3575
673.8 25.5833
673.9 23.9181
674 22.1489
674.1 20.3939
674.2 18.7635
674.3 17.2647
674.4 15.7456
674.5 14.2751
674.6 12.8637
674.7 11.6233
674.8 10.3663
674.9 9.22527
675 8.19228
675.1 7.30023
675.2 6.45832
675.3 5.66921
675.4 4.96124
675.5 4.3647
675.6 3.79401
675.7 3.28573
675.8 2.86307
675.9 2.5136
676 2.18826
676.1 1.8955
676.2 1.64798
676.3 1.44454
676.4 1.2558
676.5 1.08858
676.6 0.954467
676.7 0.838615
676.8 0.734875
676.9 0.646696
677 0.565633
677.1 0.500776
677.2 0.439404
677.3 0.386652
677.4 0.340099
677.5 0.304655
677.6 0.272102
677.7 0.241721
677.8 0.216148
677.9 0.193758
678 0.173955
678.1 0.155304
678.2 0.138999
678.3 0.126502
678.4 0.114157
678.5 0.104224
678.6 0.0941506
678.7 0.0852951
678.8 0.0779584
678.9 0.0714659
679 0.0645774
679.1 0.0602998
679.2 0.0550373
679.3 0.0499831
679.4 0.0460062
679.5 0.0426113
679.6 0.0389434
679.7 0.0359529
679.8 0.0335832
679.9 0.0307951
680 0.0292716
680.1 0.0266258
680.2 0.0252952
680.3 0.0231741
680.4 0.0216476
680.5 0.0200826
680.6 0.0188704
680.7 0.0176676
680.8 0.0163627
680.9 0.0158281
681 0.0142218
681.1 0.0139238
681.2 0.0126218
681.3 0.0117037
681.4 0.0109549
681.5 0.0106287
681.6 0.0101255
681.7 0.00902058
681.8 0.00874905
681.9 0.00835345
682 0.00718793
682.1 0.00732192
682.2 0.00674226
682.3 0.00628813
682.4 0.00591605
682.5 0.00582355
682.6 0.00535051
682.7 0.00490232
682.8 0.00490819
682.9 0.00409829
683 0.00429102
683.1 0.00387791
683.2 0.00359278
683.3 0.00375615
683.4 0.00329335
683.5 0.00325205
683.6 0.00301982
683.7 0.00253365
683.8 0.0024141
683.9 0.00223306
684 0.00193061
684.1 0.00200396
684.2 0.00218482
684.3 0.0018804
684.4 0.00192457
684.5 0.00172412
684.6 0.00192057
684.7 0.0017945
684.8 0.00158927
684.9 0.00156977
685 0.00181748
