

# ING Filter Throughput Data
# Serial Number : 69
# Filtername    : H6695
# Filtersystem  : Narrow Band
# Passband      : Halpha 6695/53
# FWHM          : 53
# Cosmetics     : Bad transmitted wavefront errors, likely to degrade the PSF by > 1" in ACAM. 
# Measured      : 2010-07-09 10:45:14
# Wavelength Throughput
# nm %
660 0.0192514
660.1 0.0206747
660.2 0.0218363
660.3 0.0244564
660.4 0.0247831
660.5 0.0235067
660.6 0.0267202
660.7 0.0270456
660.8 0.0284114
660.9 0.0317415
661 0.0327652
661.1 0.0333913
661.2 0.0400401
661.3 0.0396537
661.4 0.0413959
661.5 0.0453179
661.6 0.0475211
661.7 0.045976
661.8 0.0526296
661.9 0.0595208
662 0.0629198
662.1 0.0636133
662.2 0.0702943
662.3 0.0724582
662.4 0.0741181
662.5 0.0891988
662.6 0.0862767
662.7 0.0902347
662.8 0.105993
662.9 0.109364
663 0.12122
663.1 0.132346
663.2 0.1387
663.3 0.148461
663.4 0.163711
663.5 0.185615
663.6 0.200837
663.7 0.218966
663.8 0.242302
663.9 0.256776
664 0.290945
664.1 0.314371
664.2 0.347992
664.3 0.399174
664.4 0.448608
664.5 0.501629
664.6 0.546361
664.7 0.60561
664.8 0.693847
664.9 0.769106
665 0.896724
665.1 1.02095
665.2 1.12957
665.3 1.33803
665.4 1.52409
665.5 1.72355
665.6 1.99743
665.7 2.33663
665.8 2.66983
665.9 3.18588
666 3.73627
666.1 4.38811
666.2 5.17542
666.3 6.12508
666.4 7.18289
666.5 8.60312
666.6 10.1155
666.7 12.0653
666.8 14.367
666.9 16.8631
667 19.7736
667.1 22.8988
667.2 26.2438
667.3 30.236
667.4 33.9664
667.5 37.726
667.6 41.6314
667.7 45.2616
667.8 48.217
667.9 50.6972
668 52.9028
668.1 54.5401
668.2 55.688
668.3 56.3662
668.4 57.1875
668.5 57.2506
668.6 57.5685
668.7 57.4554
668.8 57.1716
668.9 57.2719
669 57.1752
669.1 56.9474
669.2 57.0964
669.3 57.0661
669.4 56.8275
669.5 56.9174
669.6 57.1089
669.7 56.9794
669.8 57.1257
669.9 57.1934
670 56.8371
670.1 56.8964
670.2 57.0287
670.3 56.6875
670.4 56.6788
670.5 56.685
670.6 56.601
670.7 56.5116
670.8 56.4514
670.9 56.2573
671 56.294
671.1 56.1319
671.2 56.2581
671.3 56.1051
671.4 55.963
671.5 55.4207
671.6 54.6314
671.7 53.5372
671.8 52.2457
671.9 50.7554
672 48.3824
672.1 45.8947
672.2 42.9226
672.3 39.354
672.4 35.8664
672.5 31.8049
672.6 28.2443
672.7 25.1459
672.8 21.7458
672.9 18.6372
673 16.0436
673.1 13.7859
673.2 11.6835
673.3 9.93732
673.4 8.61285
673.5 7.35371
673.6 6.32783
673.7 5.41809
673.8 4.69396
673.9 4.0517
674 3.53221
674.1 3.03058
674.2 2.66564
674.3 2.31374
674.4 2.01761
674.5 1.75955
674.6 1.55091
674.7 1.35926
674.8 1.18714
674.9 1.03734
675 0.930118
675.1 0.819595
675.2 0.728561
675.3 0.653243
675.4 0.586361
675.5 0.519247
675.6 0.465907
675.7 0.411948
675.8 0.375582
675.9 0.335425
676 0.292086
676.1 0.267913
676.2 0.245856
676.3 0.219929
676.4 0.197731
676.5 0.185893
676.6 0.164743
676.7 0.148595
676.8 0.141375
676.9 0.12768
677 0.11559
677.1 0.10564
677.2 0.101645
677.3 0.0909785
677.4 0.081702
677.5 0.0788326
677.6 0.0706558
677.7 0.0631765
677.8 0.0621322
677.9 0.0576074
678 0.0509605
678.1 0.0479517
678.2 0.0442275
678.3 0.0416762
678.4 0.0409619
678.5 0.0336217
678.6 0.0341067
678.7 0.03092
678.8 0.0311148
678.9 0.0268122
679 0.0244654
679.1 0.0238908
679.2 0.0240922
679.3 0.021563
679.4 0.0187634
679.5 0.0186186
679.6 0.0189432
679.7 0.0164105
679.8 0.0171352
679.9 0.0151025
680 0.012868
