#Filter #134, 391_7
#Measured with pinhole and grism 16 on ALFOSC
#April 9, 2011 by Tapio Pursimo
#Transmittance calculated and wavelength calibrated
#by Andreas Sandberg (sandberg@astro.su.se)

3750.140	0.00016
3750.839	-0.00143
3751.537	0.00005
3752.236	-0.00513
3752.934	-0.00020
3753.633	0.00046
3754.332	0.00020
3755.031	0.00040
3755.730	0.00115
3756.429	0.00000
3757.128	0.00059
3757.827	0.00000
3758.527	0.00039
3759.226	-0.00044
3759.926	0.00015
3760.626	-0.00063
3761.326	-0.00015
3762.026	0.00015
3762.726	0.00219
3763.426	0.00029
3764.127	0.00063
3764.827	0.00010
3765.528	0.00312
3766.228	0.00162
3766.929	0.00038
3767.630	0.00048
3768.331	0.00056
3769.032	0.00019
3769.734	0.00033
3770.435	0.00053
3771.136	0.00566
3771.838	0.00043
3772.540	0.00019
3773.242	0.00057
3773.943	0.00019
3774.646	0.00037
3775.348	0.00096
3776.050	0.00042
3776.752	0.00019
3777.455	0.00009
3778.157	-0.00014
3778.860	0.00093
3779.563	0.00032
3780.266	0.00125
3780.969	0.00041
3781.672	0.00074
3782.375	-0.00014
3783.079	0.00005
3783.782	0.00023
3784.486	-0.00692
3785.189	-0.00050
3785.893	0.00084
3786.597	0.00075
3787.301	0.00098
3788.005	0.00017
3788.709	0.00126
3789.414	0.00017
3790.118	0.00091
3790.823	0.00088
3791.528	0.00018
3792.232	-0.00026
3792.937	-0.00047
3793.642	0.00060
3794.347	0.00034
3795.053	-0.00017
3795.758	0.00009
3796.464	-0.00051
3797.169	0.00081
3797.875	-0.00008
3798.581	0.00030
3799.287	0.00025
3799.993	0.00580
3800.699	0.00008
3801.405	0.00012
3802.111	0.00049
3802.818	0.00044
3803.524	0.00008
3804.231	0.00020
3804.938	0.00020
3805.645	0.00065
3806.352	0.00028
3807.059	0.00063
3807.766	0.00027
3808.474	0.00019
3809.181	0.00051
3809.889	-0.00088
3810.596	0.00031
3811.304	0.00117
3812.012	0.00039
3812.720	-0.00004
3813.428	0.00084
3814.136	0.00073
3814.845	0.00105
3815.553	0.00066
3816.262	0.00088
3816.971	-0.00019
3817.679	-0.00053
3818.388	-0.00039
3819.097	0.00065
3819.806	0.00065
3820.516	-0.00027
3821.225	-0.00004
3821.935	-0.00008
3822.644	0.00030
3823.354	0.00074
3824.064	0.00095
3824.774	0.00038
3825.484	-0.00056
3826.194	0.00034
3826.904	0.00078
3827.614	0.00133
3828.325	0.00062
3829.035	0.00087
3829.746	0.00018
3830.457	0.00047
3831.168	0.00062
3831.879	0.00055
3832.590	-0.00025
3833.301	0.00091
3834.013	0.00028
3834.724	0.00089
3835.436	0.00025
3836.147	-0.00011
3836.859	0.00032
3837.571	0.00203
3838.283	-0.00042
3838.995	-0.00003
3839.707	-0.00035
3840.420	0.00053
3841.132	0.00070
3841.845	0.00000
3842.557	0.00079
3843.270	0.00024
3843.983	0.00086
3844.696	0.00085
3845.409	-0.00316
3846.123	0.00088
3846.836	0.00037
3847.549	0.00137
3848.263	0.00084
3848.977	0.00020
3849.690	0.00039
3850.404	0.00029
3851.118	0.00046
3851.833	0.00030
3852.547	0.00068
3853.261	0.00046
3853.976	0.00069
3854.690	0.00087
3855.405	0.00023
3856.120	0.00006
3856.835	0.00032
3857.550	0.00038
3858.265	0.00068
3858.980	0.00108
3859.695	0.00047
3860.411	0.00000
3861.126	0.00087
3861.842	0.00036
3862.558	0.00097
3863.274	0.00067
3863.990	0.00078
3864.706	0.00057
3865.422	0.00080
3866.139	0.00110
3866.855	0.00117
3867.572	0.00106
3868.288	0.00112
3869.005	0.00134
3869.722	0.00107
3870.439	0.00203
3871.156	0.00206
3871.873	0.00115
3872.591	0.00206
3873.308	0.00256
3874.026	0.00394
3874.743	0.00430
3875.461	0.00548
3876.179	0.00765
3876.897	0.00885
3877.615	0.01128
3878.334	0.01552
3879.052	0.01934
3879.770	0.02559
3880.489	0.03606
3881.208	0.05203
3881.926	0.07417
3882.645	0.10402
3883.364	0.14189
3884.083	0.18890
3884.803	0.25189
3885.522	0.29983
3886.242	0.36750
3886.961	0.42515
3887.681	0.47703
3888.401	0.53158
3889.120	0.56922
3889.840	0.60128
3890.561	0.62260
3891.281	0.63063
3892.001	0.63308
3892.722	0.63507
3893.442	0.61573
3894.163	0.61402
3894.884	0.60036
3895.605	0.60406
3896.326	0.59360
3897.047	0.59265
3897.768	0.59677
3898.489	0.59682
3899.211	0.60129
3899.932	0.62408
3900.654	0.63185
3901.376	0.63104
3902.098	0.63062
3902.820	0.63849
3903.542	0.65286
3904.264	0.66652
3904.986	0.66298
3905.709	0.67640
3906.432	0.67011
3907.154	0.68252
3907.877	0.68604
3908.600	0.68620
3909.323	0.69994
3910.046	0.68848
3910.769	0.70088
3911.493	0.70831
3912.216	0.70230
3912.940	0.70205
3913.663	0.70653
3914.387	0.71474
3915.111	0.70504
3915.835	0.72025
3916.559	0.72717
3917.283	0.72793
3918.008	0.71351
3918.732	0.71761
3919.457	0.71467
3920.181	0.72954
3920.906	0.72074
3921.631	0.72307
3922.356	0.72807
3923.081	0.73108
3923.807	0.73056
3924.532	0.73266
3925.257	0.72588
3925.983	0.73143
3926.709	0.73538
3927.434	0.73851
3928.160	0.74984
3928.886	0.75174
3929.612	0.74694
3930.339	0.74669
3931.065	0.75810
3931.791	0.74671
3932.518	0.73688
3933.245	0.74590
3933.971	0.74451
3934.698	0.73616
3935.425	0.71789
3936.153	0.71858
3936.880	0.71289
3937.607	0.69157
3938.335	0.69936
3939.062	0.67984
3939.790	0.67972
3940.518	0.65864
3941.245	0.65765
3941.973	0.65264
3942.702	0.62713
3943.430	0.61316
3944.158	0.58503
3944.887	0.57613
3945.615	0.55117
3946.344	0.51936
3947.073	0.49644
3947.802	0.47125
3948.531	0.43164
3949.260	0.40828
3949.989	0.37367
3950.718	0.33197
3951.448	0.30058
3952.177	0.26347
3952.907	0.23893
3953.637	0.20251
3954.367	0.17835
3955.097	0.14655
3955.827	0.12394
3956.557	0.10933
3957.287	0.09246
3958.018	0.07356
3958.748	0.05916
3959.479	0.04775
3960.210	0.04339
3960.941	0.03660
3961.672	0.03011
3962.403	0.02591
3963.134	0.02141
3963.865	0.01892
3964.597	0.01510
3965.328	0.01302
3966.060	0.01047
3966.792	0.00949
3967.524	0.00768
3968.256	0.00682
3968.988	0.00683
3969.720	0.00512
3970.453	0.00461
3971.185	0.00235
3971.918	0.00358
3972.650	0.00279
3973.383	0.00259
3974.116	0.00263
3974.849	0.00203
3975.582	0.00183
3976.315	0.00173
3977.049	0.00203
3977.782	0.00138
3978.516	0.00108
3979.249	0.00129
3979.983	0.00088
3980.717	0.00100
3981.451	0.00021
3982.185	0.00067
3982.919	0.00094
3983.654	0.00134
3984.388	0.00080
3985.123	0.00056
3985.857	0.00102
3986.592	0.00067
3987.327	0.00071
3988.062	0.00053
3988.797	0.00017
3989.532	0.00033
3990.268	0.00063
3991.003	0.00051
3991.739	0.00015
3992.474	0.00039
3993.210	0.00031
3993.946	0.00152
3994.682	0.00026
3995.418	0.00017
3996.154	0.00049
3996.891	0.00013
3997.627	0.00051
3998.364	0.00027
3999.100	0.00042
3999.837	0.00027
4000.574	-0.00025
4001.311	0.00022
4002.048	0.00034
4002.785	0.00004
4003.523	0.00028
4004.260	0.00039
4004.998	0.00023
4005.735	0.00018
4006.473	0.00068
4007.211	0.00037
4007.949	0.00024
4008.687	0.00068
4009.425	0.00043
4010.164	0.00038
4010.902	0.00010
4011.641	0.00000
4012.379	0.00047
4013.118	0.00002
4013.857	0.00018
4014.596	-0.00013
4015.335	0.00015
4016.074	0.00022
4016.814	0.00035
4017.553	0.00035
4018.293	-0.00003
4019.032	0.00053
4019.772	0.00015
4020.512	0.00033
4021.252	-0.00003
4021.992	0.00008
4022.732	0.00013
4023.473	0.00103
4024.213	0.00024
4024.954	0.00029
4025.694	0.00035
4026.435	0.00006
4027.176	0.00056
4027.917	0.00011
4028.658	0.00021
4029.399	0.00019
4030.141	0.00027
4030.882	0.00031
4031.624	0.00016
4032.365	-0.00006
4033.107	0.00021
4033.849	0.00010
4034.591	0.00040
4035.333	0.00029
4036.075	0.00005
4036.818	0.00017
4037.560	0.00040
4038.303	0.00057
4039.045	0.00008
4039.788	0.00011
4040.531	-0.00024
4041.274	0.00028
4042.017	0.00034
4042.760	0.00014
4043.504	0.00008
4044.247	0.00011
4044.991	-0.00017
4045.734	0.00011
4046.478	0.00020
4047.222	0.00047
4047.966	0.00017
4048.710	0.00017
4049.454	-0.00009
4050.199	-0.00006
4050.943	0.00040
4051.688	-0.00002
4052.432	0.00009
4053.177	-0.00040
4053.922	0.00015
4054.667	0.00020
4055.412	-0.00079
4056.157	0.00029
4056.903	0.00052
4057.648	0.00035
4058.394	0.00015
4059.139	0.00003
4059.885	-0.00015
4060.631	0.00012
4061.377	0.00022
4062.123	-0.00004
4062.869	-0.00010
4063.616	0.00033
4064.362	0.00007
4065.109	0.00034
4065.855	-0.00001
4066.602	-0.00024
4067.349	0.00043
4068.096	-0.00112
4068.843	0.00031
4069.590	0.00012
4070.338	0.00022
4071.085	-0.00015
4071.833	0.00023
4072.580	0.00025
4073.328	0.00026
4074.076	0.00019
4074.824	0.00000
4075.572	0.00037
4076.320	0.00023
4077.069	0.00023
4077.817	0.00023
4078.566	0.00041
4079.314	0.00014
4080.063	0.00008
4080.812	0.00103
4081.561	0.00000
4082.310	0.00030
4083.059	0.00006
4083.809	-0.00001
4084.558	-0.00003
4085.308	0.00034
4086.057	0.00018
4086.807	0.00008
4087.557	0.00028
4088.307	0.00004
4089.057	0.00012
4089.807	0.00018
4090.557	0.00024
4091.308	-0.00127
4092.058	0.00007
4092.809	0.00007
4093.560	0.00028
4094.311	0.00022
4095.062	0.00015
4095.813	0.00023
4096.564	0.00012
4097.315	0.00032
4098.067	0.00039
4098.818	0.00005
4099.570	0.00044
4100.322	0.00037
4101.074	0.00012
4101.826	-0.00025
4102.578	0.00012
4103.330	0.00018
4104.082	0.00033
4104.835	0.00032
4105.587	-0.00003
4106.340	0.00014
4107.093	0.00008
4107.846	0.00030
4108.599	0.00020
4109.352	0.00019
4110.105	0.00032
4110.858	0.00012
4111.612	0.00022
4112.365	0.00076
4113.119	0.00013
4113.873	0.00017
4114.627	0.00040
4115.381	0.00036
4116.135	0.00019
4116.889	0.00005
4117.643	0.00006
4118.398	-0.00011
4119.152	0.00016
4119.907	-0.00015
4120.662	0.00033
4121.416	0.00010
4122.171	0.00035
4122.927	0.00163
4123.682	0.00011
4124.437	-0.00020
4125.192	-0.00012
4125.948	0.00023
4126.704	0.00035
4127.459	0.00011
4128.215	0.00023
4128.971	-0.00001
4129.727	0.00011
4130.484	0.00001
4131.240	0.00016
4131.996	0.00011
4132.753	-0.00006
4133.510	0.00351
4134.266	0.00019
4135.023	0.00035
4135.780	0.00006
4136.537	0.00017
4137.294	0.00020
4138.052	-0.00008
4138.809	0.00021
4139.567	0.00012
4140.324	0.00015
4141.082	0.00008
4141.840	0.00022
4142.598	0.00007
4143.356	0.00007
4144.114	0.00013
4144.873	0.00014
4145.631	0.00020
4146.390	-0.00038
4147.148	0.00022
4147.907	0.00024
4148.666	0.00036
4149.425	0.00007
4150.184	-0.00010
4150.943	0.00007
4151.703	0.00015
4152.462	0.00013
4153.222	0.00010
4153.981	0.00027
4154.741	-0.00003
4155.501	0.00014
4156.261	0.00015
4157.021	0.00034
4157.781	-0.00014
4158.541	0.00027
4159.302	0.00035
4160.062	0.00014
4160.823	0.00004
4161.584	0.00019
4162.345	0.00006
4163.106	0.00025
4163.867	0.00012
4164.628	-0.00003
4165.389	0.00019
4166.151	0.00012
4166.912	0.00000
4167.674	0.00009
4168.436	0.00025
4169.198	0.00007
4169.960	0.00012
4170.722	-0.00016
4171.484	0.00009
4172.246	0.00001
4173.009	0.00007
4173.771	0.00043
4174.534	0.00004
4175.296	0.00002
4176.059	-0.00036
4176.822	-0.00008
4177.585	0.00001
4178.349	0.00015
4179.112	-0.00003
4179.875	0.00016
4180.639	0.00020
4181.403	-0.00027
4182.166	0.00001
4182.930	0.00009
4183.694	0.00011
4184.458	0.00004
4185.222	0.00015
4185.987	0.00026
4186.751	0.00025
4187.516	0.00018
4188.280	-0.00004
4189.045	-0.00009
4189.810	0.00000
4190.575	-0.00004
4191.340	0.00009
4192.105	0.00004
4192.871	0.00023
4193.636	0.00009
4194.402	0.00033
4195.167	-0.00005
4195.933	-0.00002
4196.699	0.00005
4197.465	0.00027
4198.231	0.00031
4198.997	0.00006
4199.763	0.00006
4200.530	0.00027
4201.296	0.00007
4202.063	0.00005
4202.830	0.00013
4203.597	0.00118
4204.364	0.00024
4205.131	0.00012
4205.898	0.00026
4206.665	0.00017
4207.433	0.00022
4208.200	0.00010
4208.968	0.00001
4209.736	0.00012
4210.503	0.00010
4211.271	0.00019
4212.040	0.00014
4212.808	0.00008
4213.576	0.00009
4214.344	-0.00001
4215.113	0.00019
4215.882	0.00010
4216.650	0.00010
4217.419	0.00003
4218.188	-0.00008
4218.957	-0.00005
4219.727	0.00022
4220.496	0.00016
4221.265	0.00035
4222.035	0.00021
4222.804	0.00010
4223.574	0.00021
4224.344	0.00008
4225.114	0.00009
4225.884	0.00015
4226.654	-0.00007
4227.425	0.00016
4228.195	0.00004
4228.966	-0.00006
4229.736	0.00009
4230.507	0.00003
4231.278	-0.00011
4232.049	0.00020
4232.820	-0.00005
4233.591	-0.00017
4234.362	0.00025
4235.134	0.00010
4235.905	0.00017
4236.677	0.00014
4237.449	0.00021
4238.221	0.00009
4238.993	0.00004
4239.765	-0.00004
4240.537	0.00004
4241.309	0.00003
4242.082	0.00012
4242.854	0.00021
4243.627	0.00011
4244.400	0.00020
4245.172	0.00002
4245.945	0.00023
4246.718	-0.00001
4247.492	0.00020
4248.265	-0.00015
4249.038	-0.00004
4249.812	0.00010
4250.586	0.00002
4251.359	-0.00003
4252.133	-0.00004
4252.907	0.00009
4253.681	-0.00001
4254.455	0.00013
4255.230	0.00014
4256.004	-0.00033
4256.779	-0.00003
4257.553	0.00014
4258.328	0.00011
4259.103	0.00024
4259.878	0.00005
4260.653	0.00014
4261.428	0.00006
4262.203	0.00005
4262.979	0.00004
4263.754	0.00011
4264.530	0.00015
4265.306	-0.00001
4266.082	0.00026
4266.858	0.00021
4267.634	0.00011
4268.410	0.00015
4269.186	0.00012
4269.963	0.00018
4270.739	0.00007
4271.516	-0.00002
4272.293	0.00021
4273.069	-0.00005
4273.846	0.00012
4274.623	0.00002
4275.401	-0.00006
4276.178	-0.00002
4276.955	-0.00022
4277.733	-0.00001
4278.511	0.00005
4279.288	-0.00022
4280.066	0.00015
4280.844	0.00007
4281.622	0.00001
4282.400	0.00012
4283.179	0.00007
4283.957	0.00018
4284.736	0.00002
4285.514	-0.00004
4286.293	0.00007
4287.072	0.00007
4287.851	0.00013
4288.630	0.00016
4289.409	0.00002
4290.188	0.00009
4290.968	0.00020
4291.747	0.00003
4292.527	0.00003
4293.307	0.00005
4294.087	0.00003
4294.867	0.00001
4295.647	0.00010
4296.427	0.00004
4297.207	0.00003
4297.988	0.00005
4298.768	0.00008
4299.549	0.00016
4300.329	-0.00011
4301.110	0.00005
4301.891	-0.00015
4302.672	-0.00005
4303.454	0.00028
4304.235	-0.00011
4305.016	0.00009
4305.798	0.00005
4306.579	-0.00044
4307.361	-0.00002
4308.143	0.00004
4308.925	0.00005
4309.707	0.00008
4310.489	0.00021
4311.272	0.00007
4312.054	0.00005
4312.836	0.00019
4313.619	0.00027
4314.402	0.00006
4315.185	-0.00014
4315.968	0.00019
4316.751	0.00021
4317.534	0.00001
4318.317	0.00000
4319.101	-0.00002
4319.884	0.00005
4320.668	-0.00007
4321.452	-0.00020
4322.235	0.00006
4323.019	0.00003
4323.803	0.00004
4324.588	-0.00001
4325.372	0.00010
4326.156	0.00009
4326.941	-0.00005
4327.725	0.00091
4328.510	0.00004
4329.295	0.00009
4330.080	-0.00001
4330.865	0.00010
4331.650	0.00006
4332.436	-0.00009
4333.221	0.00010
4334.007	0.00004
4334.792	0.00001
4335.578	0.00018
4336.364	0.00012
4337.150	-0.00001
4337.936	0.00009
4338.722	0.00010
4339.508	-0.00004
4340.295	0.00001
4341.081	0.00009
4341.868	-0.00006
4342.655	0.00011
4343.441	0.00007
4344.228	0.00010
4345.015	0.00007
4345.803	0.00009
4346.590	0.00002
4347.377	0.00001
4348.165	-0.00002
4348.952	-0.00019
4349.740	0.00006
4350.528	0.00016
4351.316	-0.00009
4352.104	0.00002
4352.892	0.00013
4353.681	0.00011
4354.469	-0.00005
4355.258	0.00011
4356.046	0.00003
4356.835	0.00008
4357.624	-0.00002
4358.413	0.00001
4359.202	0.00006
4359.991	0.00018
4360.780	0.00012
4361.570	0.00018
4362.359	0.00007
4363.149	-0.00003
4363.939	0.00022
4364.728	0.00012
4365.518	0.00007
4366.308	-0.00002
4367.099	-0.00001
4367.889	0.00003
4368.679	0.00001
4369.470	0.00009
4370.260	0.00005
4371.051	-0.00003
4371.842	0.00010
4372.633	0.00001
4373.424	0.00003
4374.215	0.00003
4375.007	0.00005
4375.798	0.00005
4376.589	-0.00001
4377.381	0.00001
4378.173	0.00003
4378.965	0.00007
4379.757	0.00004
4380.549	0.00001
4381.341	0.00001
4382.133	0.00010
4382.926	-0.00003
4383.718	-0.00001
4384.511	0.00010
4385.303	0.00003
4386.096	0.00001
4386.889	0.00020
4387.682	0.00008
4388.475	0.00004
4389.269	0.00034
4390.062	0.00002
4390.856	0.00007
4391.649	0.00006
4392.443	-0.00003
4393.237	0.00009
4394.031	0.00000
4394.825	0.00003
4395.619	0.00014
4396.413	0.00004
4397.208	-0.00001
4398.002	0.00003
4398.797	0.00005
4399.592	0.00009
4400.387	0.00008
4401.181	0.00004
4401.977	0.00003
4402.772	0.00012
4403.567	0.00019
4404.362	0.00038
4405.158	0.00001
4405.954	0.00006
4406.749	0.00004
4407.545	0.00008
4408.341	0.00009
4409.137	0.00009
4409.933	0.00005
4410.730	0.00006
4411.526	0.00004
4412.323	0.00006
4413.119	0.00004
4413.916	-0.00002
4414.713	0.00009
4415.510	0.00009
4416.307	0.00008
4417.104	0.00005
4417.901	-0.00002
4418.699	0.00009
4419.496	0.00010
4420.294	0.00014
4421.091	0.00004
4421.889	-0.00022
4422.687	0.00007
4423.485	0.00001
4424.283	-0.00001
4425.082	0.00002
4425.880	-0.00003
4426.679	-0.00001
4427.477	0.00013
4428.276	0.00001
4429.075	0.00015
4429.874	-0.00006
4430.673	0.00026
4431.472	0.00016
4432.271	-0.00004
4433.071	0.00003
4433.870	-0.00003
4434.670	0.00017
4435.470	0.00005
4436.269	0.00005
4437.069	0.00003
4437.869	0.00002
4438.670	-0.00001
4439.470	-0.00005
4440.270	-0.00003
4441.071	0.00001
4441.871	-0.00002
4442.672	0.00008
4443.473	-0.00005
4444.274	0.00006
4445.075	0.00009
4445.876	0.00006
4446.677	-0.00004
4447.479	-0.00007
4448.280	-0.00006
4449.082	0.00004
4449.884	0.00005
4450.686	-0.00047
4451.488	0.00001
4452.290	-0.00006
4453.092	0.00006
4453.894	0.00003
4454.696	0.00001
4455.499	0.00005
4456.302	-0.00002
4457.104	0.00000
4457.907	-0.00004
4458.710	0.00009
4459.513	-0.00042
4460.316	-0.00001
4461.120	0.00000
4461.923	-0.00004
4462.726	-0.00004
4463.530	0.00009
4464.334	0.00004
4465.138	0.00005
4465.942	-0.00004
4466.746	0.00005
4467.550	-0.00004
4468.354	-0.00002
4469.159	0.00003
4469.963	-0.00001
4470.768	0.00065
4471.572	-0.00005
4472.377	0.00004
4473.182	-0.00009
4473.987	-0.00004
4474.792	0.00002
4475.598	-0.00010
4476.403	-0.00002
4477.209	0.00004
4478.014	0.00008
4478.820	0.00000
4479.626	0.00017
4480.432	-0.00002
4481.238	-0.00003
4482.044	0.00013
4482.850	0.00003
4483.657	-0.00001
4484.463	0.00003
4485.270	-0.00002
4486.076	0.00005
4486.883	0.00003
4487.690	0.00001
4488.497	-0.00001
4489.304	-0.00005
4490.112	0.00007
4490.919	-0.00008
4491.727	0.00003
4492.534	0.00005
4493.342	0.00003
4494.150	0.00015
4494.958	0.00001
4495.766	0.00026
4496.574	0.00005
4497.382	0.00009
4498.191	-0.00003
4498.999	-0.00001
4499.808	-0.00005
4500.616	-0.00008
4501.425	-0.00013
4502.234	0.00002
4503.043	0.00000
4503.852	0.00007
4504.662	0.00005
4505.471	-0.00001
4506.281	0.00002
4507.090	-0.00004
4507.900	0.00010
4508.710	0.00002
4509.520	-0.00008
4510.330	-0.00008
4511.140	0.00004
4511.950	0.00005
4512.761	-0.00003
4513.571	0.00001
4514.382	-0.00000
4515.192	0.00002
4516.003	0.00002
4516.814	0.00008
4517.625	0.00000
4518.436	0.00012
4519.248	0.00005
4520.059	0.00009
4520.871	0.00007
4521.682	0.00000
4522.494	-0.00002
4523.306	-0.00005
4524.118	0.00001
4524.930	-0.00004
4525.742	-0.00005
4526.554	0.00001
4527.367	0.00004
4528.179	0.00004
4528.992	0.00008
4529.804	0.00004
4530.617	0.00009
4531.430	0.00002
4532.243	0.00028
4533.056	0.00001
4533.870	0.00004
4534.683	-0.00007
4535.497	-0.00006
4536.310	0.00000
4537.124	0.00004
4537.938	0.00009
4538.752	0.00005
4539.566	0.00002
4540.380	0.00006
4541.194	-0.00006
4542.009	-0.00008
4542.823	-0.00005
4543.638	-0.00004
4544.452	0.00006
4545.267	-0.00008
4546.082	-0.00008
4546.897	-0.00003
4547.712	-0.00004
4548.528	0.00000
4549.343	0.00001
4550.158	0.00009
4550.974	-0.00001
4551.790	0.00004
4552.606	0.00029
4553.422	-0.00007
4554.238	-0.00003
4555.054	0.00003
4555.870	0.00003
4556.686	-0.00012
4557.503	0.00001
4558.320	0.00002
4559.136	-0.00003
4559.953	0.00004
4560.770	-0.00008
4561.587	-0.00019
4562.404	-0.00003
4563.221	-0.00000
4564.039	0.00003
4564.856	-0.00005
4565.674	0.00004
4566.492	-0.00002
4567.309	0.00004
4568.127	0.00001
4568.945	0.00003
4569.764	-0.00001
4570.582	-0.00010
4571.400	0.00002
4572.219	-0.00001
4573.037	-0.00005
4573.856	0.00010
4574.675	-0.00000
4575.494	0.00004
4576.313	-0.00002
4577.132	-0.00013
4577.951	0.00004
4578.771	0.00008
4579.590	0.00001
4580.410	0.00001
4581.230	0.00000
4582.049	0.00003
4582.869	-0.00006
4583.689	-0.00001
4584.509	-0.00004
4585.330	0.00003
4586.150	-0.00011
4586.971	0.00003
4587.791	-0.00004
4588.612	0.00002
4589.433	-0.00001
4590.254	0.00001
4591.075	0.00005
4591.896	0.00000
4592.717	0.00006
4593.539	0.00003
4594.360	0.00000
4595.182	0.00011
4596.003	0.00009
4596.825	0.00000
4597.647	0.00005
4598.469	0.00007
4599.291	-0.00004
4600.114	0.00002
4600.936	0.00001
4601.758	-0.00002
4602.581	0.00005
4603.404	-0.00003
4604.227	0.00003
4605.050	-0.00000
4605.873	0.00117
4606.696	0.02151
4607.519	0.00163
4608.342	0.00010
4609.166	0.00007
4609.989	0.00006
4610.813	0.00016
4611.637	0.00000
4612.461	0.00002
4613.285	-0.00002
4614.109	0.00007
4614.933	-0.00009
4615.758	-0.00014
4616.582	-0.00007
4617.407	-0.00001
4618.232	-0.00008
4619.056	0.00005
4619.881	0.00017
4620.706	-0.00002
4621.532	-0.00008
4622.357	-0.00001
4623.182	0.00000
4624.008	-0.00004
4624.833	0.00007
4625.659	0.00000
4626.485	-0.00005
4627.311	-0.00001
4628.137	-0.00009
4628.963	0.00001
4629.789	-0.00005
4630.616	0.00004
4631.442	-0.00009
4632.269	-0.00006
4633.095	0.00000
4633.922	0.00002
4634.749	-0.00001
4635.576	-0.00004
4636.403	0.00010
4637.231	0.00002
4638.058	-0.00013
4638.885	-0.00002
4639.713	0.00000
4640.541	0.00005
4641.369	-0.00001
4642.196	0.00002
4643.024	-0.00004
4643.853	-0.00003
4644.681	-0.00005
4645.509	-0.00000
4646.338	-0.00008
4647.166	-0.00001
4647.995	-0.00009
4648.824	0.00003
4649.653	0.00002
4650.482	-0.00001
4651.311	0.00005
4652.140	-0.00007
4652.970	0.00008
4653.799	0.00002
4654.629	-0.00002
4655.458	-0.00008
4656.288	-0.00023
4657.118	-0.00011
4657.948	-0.00000
4658.778	-0.00002
4659.609	-0.00003
4660.439	0.00002
4661.269	-0.00011
4662.100	-0.00009
4662.931	-0.00004
4663.762	0.00002
4664.592	0.00000
4665.424	-0.00047
4666.255	-0.00007
4667.086	-0.00002
4667.917	0.00002
4668.749	0.00003
4669.580	0.00001
4670.412	-0.00003
4671.244	0.00001
4672.076	0.00005
4672.908	0.00000
4673.740	-0.00003
4674.572	-0.00018
4675.405	-0.00004
4676.237	0.00004
4677.070	0.00000
4677.902	-0.00002
4678.735	-0.00008
4679.568	-0.00003
4680.401	0.00000
4681.234	-0.00003
4682.068	0.00002
4682.901	0.00002
4683.734	-0.00006
4684.568	-0.00001
4685.402	0.00004
4686.236	0.00005
4687.069	-0.00008
4687.904	0.00002
4688.738	0.00002
4689.572	-0.00004
4690.406	-0.00004
4691.241	0.00003
4692.075	-0.00000
4692.910	-0.00030
4693.745	-0.00005
4694.580	0.00005
4695.415	-0.00004
4696.250	0.00001
4697.085	-0.00002
4697.921	-0.00000
4698.756	-0.00004
4699.592	0.00004
4700.427	0.00000
4701.263	0.00000
4702.099	0.00044
4702.935	0.00004
4703.771	-0.00002
4704.608	-0.00001
4705.444	-0.00001
4706.280	-0.00010
4707.117	-0.00010
4707.954	0.00001
4708.790	-0.00004
4709.627	-0.00002
4710.464	-0.00001
4711.302	-0.00023
4712.139	0.00000
4712.976	0.00000
4713.814	-0.00005
4714.651	0.00004
4715.489	-0.00001
4716.327	-0.00001
4717.165	-0.00002
4718.003	-0.00004
4718.841	0.00002
4719.679	0.00004
4720.517	-0.00007
4721.356	0.00007
4722.195	-0.00004
4723.033	-0.00010
4723.872	0.00004
4724.711	-0.00003
4725.550	-0.00002
4726.389	-0.00002
4727.228	-0.00029
4728.068	0.00001
4728.907	-0.00001
4729.747	-0.00004
4730.587	0.00004
4731.426	0.00002
4732.266	-0.00003
4733.106	-0.00001
4733.946	-0.00006
4734.787	-0.00004
4735.627	-0.00002
4736.468	-0.00008
4737.308	-0.00004
4738.149	-0.00002
4738.990	-0.00009
4739.831	-0.00004
4740.672	-0.00001
4741.513	-0.00003
4742.354	-0.00002
4743.195	-0.00001
4744.037	-0.00006
4744.878	-0.00007
4745.720	-0.00001
4746.562	-0.00002
4747.404	0.00001
4748.246	0.00002
4749.088	-0.00001
4749.930	0.00003
4750.773	-0.00003
4751.615	0.00002
4752.458	-0.00008
4753.300	0.00000
4754.143	-0.00006
4754.986	-0.00011
4755.829	-0.00001
4756.672	-0.00004
4757.515	-0.00004
4758.359	0.00002
4759.202	-0.00003
4760.046	0.00000
4760.890	-0.00004
4761.733	-0.00005
4762.577	-0.00007
4763.421	-0.00003
4764.265	-0.00001
4765.110	0.00002
4765.954	0.00002
4766.799	-0.00003
4767.643	0.00004
4768.488	-0.00004
4769.333	0.00002
4770.178	-0.00006
4771.023	-0.00007
4771.868	-0.00002
4772.713	-0.00004
4773.558	-0.00006
4774.404	-0.00009
4775.249	0.00001
4776.095	0.00003
4776.941	-0.00001
4777.787	-0.00007
4778.633	-0.00002
4779.479	-0.00004
4780.325	-0.00005
4781.172	0.00002
4782.018	-0.00003
4782.865	0.00001
4783.711	-0.00008
4784.558	-0.00028
4785.405	-0.00003
4786.252	-0.00002
4787.099	-0.00004
4787.946	-0.00006
4788.794	-0.00006
4789.641	-0.00004
4790.489	-0.00001
4791.337	0.00001
4792.184	-0.00004
4793.032	-0.00002
4793.880	-0.00001
4794.728	-0.00004
4795.577	-0.00007
4796.425	-0.00001
4797.273	0.00004
4798.122	-0.00003
4798.971	0.00000
4799.820	-0.00002
4800.668	0.00014
4801.517	-0.00001
4802.367	-0.00004
4803.216	-0.00003
4804.065	0.00001
4804.915	0.00000
4805.764	-0.00009
4806.614	-0.00023
4807.464	-0.00006
4808.314	-0.00003
4809.164	-0.00003
4810.014	-0.00005
4810.864	0.00000
4811.714	-0.00005
4812.565	0.00000
4813.415	0.00000
4814.266	-0.00011
4815.117	0.00001
4815.968	0.00005
4816.819	-0.00003
4817.670	0.00000
4818.521	0.00001
4819.373	0.00001
4820.224	-0.00000
4821.076	-0.00001
4821.927	-0.00010
4822.779	-0.00005
4823.631	-0.00001
4824.483	-0.00003
4825.335	-0.00001
4826.187	0.00002
4827.040	-0.00000
4827.892	0.00001
4828.745	-0.00010
4829.598	0.00001
4830.450	-0.00008
4831.303	0.00002
4832.156	-0.00005
4833.009	-0.00008
4833.863	0.00000
4834.716	0.00002
4835.569	-0.00005
4836.423	-0.00001
4837.277	-0.00007
4838.130	-0.00004
4838.984	-0.00005
4839.838	0.00001
4840.693	-0.00008
4841.547	-0.00009
4842.401	-0.00004
4843.256	-0.00008
4844.110	-0.00001
4844.965	-0.00008
4845.820	-0.00006
4846.675	-0.00008
4847.530	0.00025
4848.385	-0.00008
4849.240	0.00002
4850.095	-0.00004
4850.951	-0.00009
4851.806	-0.00007
4852.662	-0.00001
4853.518	-0.00004
4854.374	-0.00003
4855.230	-0.00007
4856.086	-0.00006
4856.942	-0.00004
4857.798	-0.00003
4858.655	-0.00003
4859.511	-0.00014
4860.368	0.00003
4861.225	-0.00009
4862.082	-0.00007
4862.939	-0.00007
4863.796	0.00003
4864.653	-0.00004
4865.511	-0.00001
4866.368	0.00005
4867.226	-0.00003
4868.083	-0.00001
4868.941	0.00002
4869.799	-0.00002
4870.657	0.00001
4871.515	0.00006
4872.373	-0.00001
4873.232	-0.00001
4874.090	0.00038
4874.949	-0.00002
4875.807	-0.00004
4876.666	-0.00008
4877.525	0.00001
4878.384	-0.00008
4879.243	-0.00005
4880.103	0.00002
4880.962	-0.00007
4881.821	-0.00004
4882.681	0.00001
4883.541	-0.00000
4884.400	-0.00003
4885.260	-0.00001
4886.120	0.00008
4886.980	0.00002
4887.841	-0.00000
4888.701	-0.00018
4889.561	-0.00005
4890.422	-0.00003
4891.283	-0.00004
4892.144	-0.00004
4893.004	-0.00003
4893.865	-0.00004
4894.727	-0.00001
4895.588	-0.00005
4896.449	-0.00006
4897.311	-0.00003
4898.172	-0.00010
4899.034	-0.00001
4899.896	-0.00001
4900.758	-0.00012
4901.620	-0.00002
4902.482	-0.00001
4903.344	-0.00003
4904.206	-0.00000
4905.069	-0.00005
4905.931	-0.00005
4906.794	-0.00003
4907.657	0.00001
4908.520	-0.00001
4909.383	-0.00006
4910.246	-0.00003
4911.109	-0.00002
4911.972	-0.00001
4912.836	0.00002
4913.699	-0.00004
4914.563	-0.00005
4915.427	-0.00001
4916.291	-0.00006
4917.155	-0.00003
4918.019	-0.00005
4918.883	-0.00005
4919.747	-0.00000
4920.612	-0.00005
4921.476	-0.00000
4922.341	-0.00008
4923.206	-0.00007
4924.071	-0.00002
4924.936	-0.00004
4925.801	0.00000
4926.666	-0.00001
4927.532	0.00004
4928.397	-0.00003
4929.263	0.00005
4930.128	0.00002
4930.994	-0.00005
4931.860	-0.00005
4932.726	-0.00005
4933.592	-0.00001
4934.458	-0.00001
4935.325	-0.00004
4936.191	-0.00005
4937.058	-0.00001
4937.924	0.00001
4938.791	-0.00004
4939.658	0.00017
4940.525	-0.00003
4941.392	-0.00005
4942.259	-0.00004
4943.127	-0.00003
4943.994	0.00001
4944.862	-0.00007
4945.729	-0.00006
4946.597	0.00000
4947.465	-0.00003
4948.333	-0.00004
4949.201	-0.00003
4950.069	0.00001
4950.938	-0.00009
4951.806	-0.00001
4952.675	0.00001
4953.543	-0.00009
4954.412	-0.00011
4955.281	-0.00006
4956.150	0.00001
4957.019	-0.00008
4957.889	-0.00006
4958.758	-0.00007
4959.627	-0.00003
4960.497	-0.00008
4961.367	-0.00002
4962.236	0.00002
4963.106	0.00001
4963.976	-0.00002
4964.846	0.00005
4965.717	-0.00003
4966.587	0.00006
4967.457	-0.00003
4968.328	0.00002
4969.199	-0.00008
4970.069	-0.00006
4970.940	-0.00005
4971.811	0.00000
4972.682	-0.00001
4973.554	-0.00001
4974.425	-0.00005
4975.296	0.00009
4976.168	-0.00003
4977.040	-0.00009
4977.911	-0.00004
4978.783	-0.00005
4979.655	-0.00004
4980.527	-0.00001
4981.400	-0.00009
4982.272	-0.00006
4983.144	-0.00001
4984.017	-0.00002
4984.890	-0.00004
4985.762	-0.00004
4986.635	-0.00000
4987.508	-0.00008
4988.381	-0.00000
4989.255	0.00001
4990.128	-0.00002
4991.001	-0.00014
4991.875	-0.00003
4992.749	0.00000
4993.622	-0.00003
4994.496	-0.00004
4995.370	-0.00006
4996.244	-0.00008
4997.119	0.00000
4997.993	-0.00003
4998.868	-0.00005
4999.742	0.00002
5000.617	-0.00021
5001.492	-0.00006
5002.366	-0.00003
5003.241	-0.00002
5004.117	-0.00003
5004.992	-0.00008
5005.867	0.00004
5006.743	-0.00002
5007.618	-0.00002
5008.494	-0.00002
5009.370	-0.00001
5010.245	-0.00011
5011.121	0.00001
5011.998	0.00000
5012.874	0.00000
5013.750	0.00002
5014.627	-0.00004
5015.503	0.00000
5016.380	-0.00003
5017.257	0.00001
5018.133	-0.00001
5019.010	-0.00001
5019.888	0.00016
5020.765	-0.00000
5021.642	0.00001
5022.520	-0.00010
5023.397	-0.00002
5024.275	-0.00003
5025.153	0.00000
5026.030	0.00001
5026.908	-0.00002
5027.787	-0.00001
5028.665	-0.00005
5029.543	-0.00003
5030.422	-0.00000
5031.300	0.00002
5032.179	-0.00003
5033.058	-0.00007
5033.936	0.00003
5034.815	-0.00006
5035.695	-0.00001
5036.574	0.00005
5037.453	-0.00003
5038.333	0.00001
5039.212	-0.00003
5040.092	0.00004
5040.972	-0.00003
5041.851	-0.00002
5042.731	-0.00002
5043.612	-0.00010
5044.492	-0.00004
5045.372	-0.00000
