#Filter #136, 397_6
#Measured with pinhole and grism 16 on ALFOSC
#May 25, 2014 by Auni Somero
#Transmittance calculated and wavelength calibrated
#by Andreas Sandberg (sandberg@astro.su.se)

3498.248	0.00200
3498.882	-0.00108
3499.516	0.00247
3500.150	-0.00121
3500.784	0.00141
3501.419	0.00111
3502.053	0.00249
3502.688	0.00204
3503.323	0.00239
3503.958	0.00037
3504.593	-0.00040
3505.228	-0.00122
3505.864	-0.00036
3506.499	-0.00027
3507.135	-0.00010
3507.771	0.00149
3508.406	-0.00113
3509.042	-0.00104
3509.679	0.00231
3510.315	-0.00082
3510.951	-0.00063
3511.588	0.00001
3512.224	0.00093
3512.861	0.00110
3513.498	0.00062
3514.135	0.00160
3514.772	0.00157
3515.410	0.00050
3516.047	-0.00100
3516.685	-0.00073
3517.322	-0.00192
3517.960	0.00131
3518.598	0.00072
3519.236	-0.00009
3519.875	0.00315
3520.513	0.00053
3521.151	0.00007
3521.790	0.00163
3522.429	0.00199
3523.068	0.00245
3523.707	-0.00022
3524.346	-0.00113
3524.985	0.00192
3525.624	-0.00058
3526.264	-0.00004
3526.904	0.00080
3527.543	-0.00122
3528.183	0.00134
3528.823	0.00006
3529.463	0.00152
3530.104	0.00066
3530.744	-0.00059
3531.385	0.00258
3532.025	0.00028
3532.666	0.00063
3533.307	0.00144
3533.948	0.00057
3534.590	0.00090
3535.231	0.00045
3535.872	0.00105
3536.514	0.00031
3537.156	0.00079
3537.798	0.00155
3538.440	0.00044
3539.082	0.00218
3539.724	0.00249
3540.366	0.00037
3541.009	0.00100
3541.652	0.00203
3542.294	-0.00094
3542.937	0.00242
3543.580	0.00125
3544.223	0.00062
3544.867	0.00105
3545.510	0.00013
3546.154	0.00071
3546.797	-0.00064
3547.441	0.00137
3548.085	0.00104
3548.729	0.00037
3549.373	-0.00041
3550.018	0.00178
3550.662	0.00204
3551.307	0.00131
3551.952	-0.00001
3552.596	-0.00229
3553.241	0.00061
3553.887	-0.00038
3554.532	0.00201
3555.177	0.00038
3555.823	-0.00027
3556.468	0.00203
3557.114	0.00167
3557.760	0.00071
3558.406	0.00101
3559.052	-0.00010
3559.698	0.00127
3560.345	-0.00044
3560.991	0.00063
3561.638	0.00054
3562.285	0.00087
3562.932	-0.00134
3563.579	0.00131
3564.226	0.00168
3564.873	0.00191
3565.521	0.00127
3566.169	0.00225
3566.816	-0.00010
3567.464	0.00277
3568.112	0.00030
3568.760	-0.00074
3569.408	0.00026
3570.057	0.00162
3570.705	0.00030
3571.354	0.00196
3572.003	0.00019
3572.652	0.00021
3573.301	0.00066
3573.950	0.00072
3574.599	0.00111
3575.248	-0.00052
3575.898	0.00033
3576.548	-0.00036
3577.198	0.00073
3577.847	0.00018
3578.498	-0.00055
3579.148	0.00224
3579.798	-0.00084
3580.448	0.00030
3581.099	0.00092
3581.750	0.00178
3582.401	0.00118
3583.052	0.00133
3583.703	0.00084
3584.354	0.00074
3585.005	-0.00069
3585.657	0.00062
3586.308	0.00147
3586.960	0.00067
3587.612	0.00089
3588.264	0.00001
3588.916	-0.00098
3589.568	0.00099
3590.221	0.00080
3590.873	0.00046
3591.526	0.00030
3592.179	0.00105
3592.832	0.00121
3593.485	0.00095
3594.138	0.00149
3594.791	0.00063
3595.445	0.00011
3596.098	0.00028
3596.752	0.00089
3597.406	0.00020
3598.060	0.00104
3598.714	-0.00034
3599.368	-0.00003
3600.023	0.00127
3600.677	0.00133
3601.332	-0.00090
3601.986	0.00124
3602.641	0.00038
3603.296	-0.00052
3603.951	-0.00070
3604.607	0.00016
3605.262	0.00018
3605.918	0.00120
3606.573	0.00071
3607.229	0.00041
3607.885	0.00007
3608.541	0.00075
3609.197	0.00009
3609.854	0.00105
3610.510	0.00032
3611.167	-0.00053
3611.823	0.00227
3612.480	-0.00017
3613.137	0.00035
3613.794	0.00093
3614.451	-0.00056
3615.109	-0.00027
3615.766	0.00001
3616.424	0.00106
3617.082	0.00146
3617.739	-0.00043
3618.397	0.00189
3619.056	0.00043
3619.714	0.00018
3620.372	0.00127
3621.031	-0.00069
3621.689	0.00027
3622.348	0.00050
3623.007	-0.00039
3623.666	-0.00137
3624.325	-0.00085
3624.985	0.00007
3625.644	0.00079
3626.304	-0.00004
3626.963	0.00237
3627.623	0.00019
3628.283	0.00063
3628.943	0.00098
3629.603	0.00038
3630.264	0.00037
3630.924	0.00027
3631.585	-0.00105
3632.245	0.00056
3632.906	-0.00048
3633.567	0.00006
3634.228	0.00077
3634.890	-0.00012
3635.551	0.00068
3636.213	-0.00008
3636.874	0.00046
3637.536	0.00064
3638.198	-0.00067
3638.860	0.00030
3639.522	0.00111
3640.184	-0.00047
3640.847	0.00083
3641.509	0.00050
3642.172	-0.00015
3642.835	0.00004
3643.498	-0.00053
3644.161	0.00086
3644.824	0.00024
3645.487	0.00009
3646.151	-0.00075
3646.814	0.00041
3647.478	-0.00003
3648.142	0.00120
3648.806	0.00079
3649.470	0.00001
3650.134	0.00039
3650.799	0.00032
3651.463	-0.00047
3652.128	0.00055
3652.793	0.00093
3653.458	0.00020
3654.123	0.00099
3654.788	0.00013
3655.453	-0.00044
3656.118	0.00132
3656.784	0.00037
3657.450	-0.00014
3658.115	0.00086
3658.781	0.00117
3659.447	0.00020
3660.114	-0.00019
3660.780	0.00035
3661.446	0.00035
3662.113	0.00105
3662.780	0.00049
3663.447	0.00032
3664.114	0.00044
3664.781	0.00001
3665.448	0.00122
3666.115	0.00018
3666.783	0.00042
3667.450	0.00094
3668.118	0.00047
3668.786	-0.00031
3669.454	0.00045
3670.122	0.00067
3670.790	-0.00028
3671.459	-0.00006
3672.127	0.00028
3672.796	0.00090
3673.465	0.00025
3674.134	0.00063
3674.803	0.00100
3675.472	0.00045
3676.141	0.00057
3676.811	-0.00002
3677.480	0.00079
3678.150	0.00011
3678.820	-0.00007
3679.490	0.00074
3680.160	0.00033
3680.830	-0.00091
3681.501	0.00087
3682.171	0.00045
3682.842	0.00100
3683.512	0.00059
3684.183	0.00067
3684.854	0.00059
3685.525	-0.00041
3686.197	0.00022
3686.868	0.00069
3687.540	0.00027
3688.211	0.00037
3688.883	-0.00057
3689.555	0.00066
3690.227	-0.00009
3690.899	-0.00027
3691.572	-0.00017
3692.244	0.00057
3692.917	0.00130
3693.589	0.00004
3694.262	-0.00023
3694.935	0.00062
3695.608	-0.00011
3696.281	0.00080
3696.955	0.00051
3697.628	0.00035
3698.302	0.00027
3698.976	0.00079
3699.649	0.00028
3700.323	0.00132
3700.998	0.00069
3701.672	0.00034
3702.346	0.00031
3703.021	0.00084
3703.695	-0.00004
3704.370	0.00019
3705.045	0.00048
3705.720	-0.00000
3706.395	0.00024
3707.071	0.00067
3707.746	0.00042
3708.422	0.00023
3709.097	0.00077
3709.773	0.00033
3710.449	0.00059
3711.125	0.00078
3711.801	-0.00046
3712.478	0.00126
3713.154	0.00050
3713.831	0.00027
3714.508	0.00087
3715.184	0.00071
3715.861	0.00068
3716.539	0.00069
3717.216	0.00048
3717.893	-0.00000
3718.571	0.00007
3719.248	0.00011
3719.926	0.00068
3720.604	0.00104
3721.282	0.00014
3721.960	0.00050
3722.639	0.00011
3723.317	0.00073
3723.995	0.00020
3724.674	0.00007
3725.353	0.00008
3726.032	0.00060
3726.711	-0.00012
3727.390	0.00053
3728.070	0.00027
3728.749	-0.00005
3729.429	0.00005
3730.108	-0.00071
3730.788	0.00036
3731.468	0.00040
3732.148	0.00029
3732.829	-0.00027
3733.509	0.00074
3734.189	0.00017
3734.870	0.00073
3735.551	0.00040
3736.232	0.00041
3736.913	-0.00012
3737.594	0.00009
3738.275	0.00043
3738.957	0.00094
3739.638	0.00018
3740.320	0.00056
3741.002	0.00017
3741.684	0.00011
3742.366	0.00043
3743.048	-0.00005
3743.730	-0.00038
3744.413	0.00024
3745.095	0.00041
3745.778	0.00051
3746.461	-0.00055
3747.144	0.00068
3747.827	0.00033
3748.510	-0.00019
3749.193	0.00069
3749.877	0.00026
3750.561	0.00062
3751.244	0.00048
3751.928	0.00036
3752.612	0.00054
3753.296	0.00104
3753.981	0.00100
3754.665	-0.00003
3755.350	-0.00014
3756.034	0.00062
3756.719	0.00071
3757.404	0.00048
3758.089	0.00049
3758.774	0.00013
3759.460	-0.00017
3760.145	0.00052
3760.831	0.00004
3761.516	-0.00011
3762.202	0.00027
3762.888	-0.00047
3763.574	0.00040
3764.261	0.00023
3764.947	0.00016
3765.633	0.00035
3766.320	-0.00004
3767.007	0.00052
3767.694	0.00001
3768.381	-0.00012
3769.068	0.00032
3769.755	-0.00033
3770.442	0.00041
3771.130	0.00037
3771.818	0.00032
3772.505	-0.00033
3773.193	0.00049
3773.881	0.00044
3774.570	-0.00010
3775.258	0.00064
3775.946	-0.00005
3776.635	0.00011
3777.324	0.00041
3778.012	0.00060
3778.701	0.00030
3779.391	-0.00004
3780.080	-0.00010
3780.769	-0.00006
3781.459	0.00048
3782.148	0.00064
3782.838	0.00085
3783.528	0.00030
3784.218	0.00026
3784.908	0.00028
3785.598	0.00044
3786.289	0.00024
3786.979	-0.00004
3787.670	0.00054
3788.361	0.00044
3789.052	0.00009
3789.743	0.00004
3790.434	-0.00010
3791.125	0.00059
3791.816	0.00033
3792.508	-0.00018
3793.200	0.00054
3793.892	0.00025
3794.584	0.00081
3795.276	0.00056
3795.968	-0.00016
3796.660	0.00018
3797.353	0.00035
3798.045	-0.00007
3798.738	0.00048
3799.431	0.00015
3800.124	-0.00038
3800.817	0.00067
3801.510	0.00050
3802.204	-0.00016
3802.897	0.00032
3803.591	0.00027
3804.285	0.00060
3804.978	0.00047
3805.672	0.00009
3806.367	0.00055
3807.061	-0.00017
3807.755	0.00043
3808.450	0.00036
3809.145	-0.00004
3809.839	0.00032
3810.534	0.00003
3811.229	0.00026
3811.925	0.00013
3812.620	0.00060
3813.315	0.00029
3814.011	0.00024
3814.707	0.00023
3815.403	0.00039
3816.099	0.00009
3816.795	-0.00004
3817.491	0.00010
3818.187	0.00026
3818.884	0.00028
3819.581	0.00056
3820.277	0.00007
3820.974	0.00014
3821.671	0.00031
3822.368	0.00026
3823.066	-0.00023
3823.763	0.00066
3824.461	0.00070
3825.158	0.00015
3825.856	0.00011
3826.554	-0.00011
3827.252	0.00067
3827.950	0.00020
3828.649	0.00043
3829.347	0.00034
3830.046	0.00024
3830.744	0.00022
3831.443	0.00004
3832.142	0.00025
3832.841	-0.00026
3833.541	0.00044
3834.240	0.00028
3834.940	0.00031
3835.639	0.00023
3836.339	0.00041
3837.039	0.00015
3837.739	0.00014
3838.439	-0.00000
3839.139	0.00006
3839.840	0.00058
3840.540	0.00032
3841.241	0.00030
3841.942	0.00055
3842.643	-0.00008
3843.344	0.00006
3844.045	0.00031
3844.746	-0.00019
3845.448	0.00033
3846.149	0.00040
3846.851	0.00078
3847.553	0.00050
3848.255	0.00035
3848.957	0.00056
3849.659	0.00021
3850.362	0.00019
3851.064	0.00026
3851.767	0.00016
3852.469	0.00016
3853.172	0.00027
3853.875	-0.00013
3854.578	0.00015
3855.282	0.00048
3855.985	-0.00006
3856.689	0.00008
3857.392	0.00072
3858.096	0.00029
3858.800	-0.00016
3859.504	0.00040
3860.208	0.00035
3860.913	0.00029
3861.617	0.00033
3862.322	0.00015
3863.026	0.00014
3863.731	0.00030
3864.436	0.00026
3865.141	0.00030
3865.846	0.00004
3866.552	0.00021
3867.257	0.00036
3867.963	0.00031
3868.669	0.00013
3869.375	-0.00008
3870.081	0.00027
3870.787	0.00039
3871.493	0.00002
3872.199	0.00015
3872.906	0.00032
3873.613	0.00009
3874.319	0.00039
3875.026	0.00076
3875.733	0.00045
3876.440	0.00027
3877.148	0.00019
3877.855	0.00010
3878.563	0.00024
3879.270	0.00026
3879.978	0.00043
3880.686	0.00012
3881.394	0.00057
3882.103	0.00038
3882.811	0.00072
3883.519	0.00024
3884.228	0.00017
3884.937	-0.00011
3885.646	0.00036
3886.355	0.00006
3887.064	0.00031
3887.773	0.00029
3888.482	0.00077
3889.192	0.00048
3889.902	0.00033
3890.611	0.00049
3891.321	0.00025
3892.031	0.00046
3892.741	0.00029
3893.452	0.00051
3894.162	0.00022
3894.873	-0.00007
3895.583	0.00055
3896.294	0.00068
3897.005	0.00096
3897.716	0.00072
3898.427	0.00067
3899.139	0.00066
3899.850	0.00116
3900.562	0.00059
3901.274	0.00089
3901.985	0.00072
3902.697	0.00077
3903.410	0.00083
3904.122	0.00105
3904.834	0.00041
3905.547	0.00085
3906.259	0.00076
3906.972	0.00085
3907.685	0.00112
3908.398	0.00128
3909.111	0.00096
3909.825	0.00114
3910.538	0.00124
3911.252	0.00127
3911.965	0.00177
3912.679	0.00172
3913.393	0.00184
3914.107	0.00206
3914.821	0.00226
3915.536	0.00324
3916.250	0.00307
3916.965	0.00373
3917.679	0.00347
3918.394	0.00548
3919.109	0.00627
3919.824	0.00792
3920.540	0.01036
3921.255	0.01306
3921.970	0.01618
3922.686	0.02007
3923.402	0.02556
3924.118	0.03338
3924.834	0.04463
3925.550	0.05615
3926.266	0.07396
3926.983	0.09527
3927.699	0.12387
3928.416	0.15657
3929.133	0.19928
3929.850	0.24455
3930.567	0.29991
3931.284	0.35469
3932.001	0.42049
3932.719	0.47951
3933.436	0.53835
3934.154	0.59065
3934.872	0.63524
3935.590	0.67867
3936.308	0.72069
3937.026	0.74674
3937.744	0.76877
3938.463	0.78320
3939.182	0.79336
3939.900	0.80317
3940.619	0.80902
3941.338	0.80178
3942.057	0.81757
3942.777	0.81199
3943.496	0.81129
3944.216	0.81325
3944.935	0.81209
3945.655	0.81480
3946.375	0.82412
3947.095	0.82473
3947.815	0.81834
3948.536	0.81349
3949.256	0.82181
3949.977	0.82122
3950.697	0.81841
3951.418	0.82531
3952.139	0.82480
3952.860	0.82349
3953.581	0.82953
3954.303	0.82782
3955.024	0.83167
3955.746	0.83347
3956.468	0.83368
3957.190	0.83641
3957.912	0.83771
3958.634	0.83161
3959.356	0.83498
3960.078	0.83579
3960.801	0.84299
3961.524	0.84445
3962.246	0.84566
3962.969	0.84386
3963.692	0.84295
3964.415	0.84969
3965.139	0.84256
3965.862	0.84591
3966.586	0.84068
3967.309	0.84447
3968.033	0.84763
3968.757	0.84497
3969.481	0.84103
3970.206	0.84865
3970.930	0.84921
3971.654	0.84502
3972.379	0.84543
3973.104	0.84713
3973.829	0.85342
3974.554	0.85029
3975.279	0.84581
3976.004	0.84551
3976.729	0.85180
3977.455	0.84417
3978.181	0.84604
3978.906	0.84210
3979.632	0.84540
3980.358	0.84537
3981.085	0.84650
3981.811	0.84118
3982.537	0.84377
3983.264	0.84556
3983.991	0.84289
3984.717	0.84368
3985.444	0.83319
3986.171	0.84158
3986.899	0.83247
3987.626	0.82477
3988.353	0.80842
3989.081	0.81001
3989.809	0.79222
3990.537	0.78034
3991.265	0.76131
3991.993	0.73950
3992.721	0.71767
3993.449	0.67989
3994.178	0.65104
3994.907	0.61707
3995.635	0.57475
3996.364	0.51835
3997.093	0.47103
3997.822	0.42011
3998.552	0.37900
3999.281	0.33248
4000.011	0.28852
4000.740	0.24747
4001.470	0.20745
4002.200	0.17849
4002.930	0.14453
4003.660	0.12031
4004.391	0.09887
4005.121	0.08196
4005.852	0.06870
4006.583	0.05414
4007.313	0.04305
4008.044	0.03474
4008.775	0.02939
4009.507	0.02344
4010.238	0.01915
4010.970	0.01589
4011.701	0.01269
4012.433	0.01105
4013.165	0.00915
4013.897	0.00730
4014.629	0.00664
4015.361	0.00531
4016.094	0.00474
4016.826	0.00351
4017.559	0.00335
4018.292	0.00242
4019.025	0.00256
4019.758	0.00165
4020.491	0.00180
4021.224	0.00170
4021.958	0.00124
4022.691	0.00105
4023.425	0.00102
4024.159	0.00092
4024.893	0.00091
4025.627	0.00059
4026.361	0.00061
4027.096	0.00088
4027.830	0.00048
4028.565	0.00061
4029.300	0.00064
4030.034	0.00049
4030.769	0.00083
4031.505	0.00028
4032.240	0.00041
4032.975	0.00023
4033.711	0.00051
4034.447	0.00038
4035.182	-0.00003
4035.918	0.00034
4036.654	0.00028
4037.390	0.00024
4038.127	0.00005
4038.863	0.00013
4039.600	0.00026
4040.337	0.00001
4041.073	0.00051
4041.810	0.00013
4042.547	-0.00006
4043.285	0.00022
4044.022	0.00028
4044.760	0.00006
4045.497	0.00028
4046.235	0.00009
4046.973	0.00033
4047.711	0.00001
4048.449	0.00032
4049.187	0.00021
4049.926	0.00014
4050.664	-0.00018
4051.403	0.00008
4052.142	0.00011
4052.881	0.00007
4053.620	0.00035
4054.359	-0.00010
4055.098	0.00005
4055.838	0.00016
4056.577	0.00046
4057.317	0.00013
4058.057	0.00038
4058.797	0.00014
4059.537	0.00014
4060.277	0.00013
4061.017	0.00013
4061.758	0.00031
4062.498	0.00015
4063.239	0.00011
4063.980	0.00003
4064.721	0.00012
4065.462	0.00027
4066.203	0.00014
4066.945	-0.00007
4067.686	0.00029
4068.428	-0.00002
4069.170	0.00019
4069.912	0.00013
4070.654	-0.00008
4071.396	-0.00005
4072.138	0.00004
4072.881	-0.00005
4073.623	-0.00021
4074.366	0.00016
4075.109	-0.00005
4075.852	0.00002
4076.595	0.00006
4077.338	0.00019
4078.081	-0.00010
4078.825	0.00016
4079.568	0.00005
4080.312	-0.00006
4081.056	-0.00015
4081.800	0.00012
4082.544	0.00034
4083.288	0.00021
4084.033	0.00024
4084.777	0.00008
4085.522	-0.00000
4086.267	0.00011
4087.012	0.00013
4087.757	0.00009
4088.502	0.00019
4089.247	0.00015
4089.993	-0.00013
4090.738	0.00002
4091.484	0.00005
4092.230	-0.00003
4092.976	0.00018
4093.722	0.00008
4094.468	0.00022
4095.214	0.00011
4095.961	0.00002
4096.707	0.00015
4097.454	-0.00004
4098.201	0.00013
4098.948	0.00020
4099.695	0.00013
4100.442	0.00022
4101.190	0.00015
4101.937	-0.00008
4102.685	-0.00003
4103.432	-0.00020
4104.180	0.00014
4104.928	0.00012
4105.677	-0.00010
4106.425	0.00005
4107.173	0.00009
4107.922	0.00027
4108.671	0.00012
4109.419	0.00003
4110.168	-0.00009
4110.917	-0.00013
4111.667	0.00010
4112.416	0.00015
4113.165	0.00014
4113.915	-0.00014
4114.665	0.00009
4115.414	0.00010
4116.164	0.00005
4116.915	0.00016
4117.665	-0.00002
4118.415	-0.00002
4119.166	0.00001
4119.916	0.00003
4120.667	0.00020
4121.418	0.00006
4122.169	-0.00015
4122.920	0.00009
4123.671	0.00015
4124.423	0.00006
4125.174	0.00013
4125.926	0.00028
4126.678	0.00008
4127.430	0.00002
4128.182	0.00006
4128.934	0.00007
4129.686	-0.00010
4130.439	-0.00009
4131.191	-0.00004
4131.944	-0.00008
4132.697	-0.00009
4133.450	-0.00011
4134.203	-0.00002
4134.956	-0.00008
4135.710	-0.00006
4136.463	0.00003
4137.217	-0.00009
4137.971	-0.00021
4138.724	0.00009
4139.478	-0.00009
4140.233	-0.00008
4140.987	-0.00008
4141.741	0.00007
4142.496	-0.00010
4143.250	-0.00001
4144.005	0.00015
4144.760	0.00016
4145.515	0.00006
4146.270	0.00026
4147.026	0.00002
4147.781	0.00000
4148.537	-0.00019
4149.292	0.00018
4150.048	0.00008
4150.804	0.00009
4151.560	0.00004
4152.317	0.00022
4153.073	-0.00008
4153.829	-0.00010
4154.586	-0.00011
4155.343	0.00003
4156.100	-0.00000
4156.857	0.00011
4157.614	0.00010
4158.371	-0.00006
4159.128	0.00009
4159.886	-0.00003
4160.644	0.00023
4161.401	-0.00018
4162.159	-0.00001
4162.917	0.00006
4163.676	-0.00002
4164.434	0.00001
4165.192	0.00012
4165.951	-0.00005
4166.710	-0.00005
4167.468	0.00015
4168.227	-0.00011
4168.986	0.00020
4169.746	0.00000
4170.505	-0.00002
4171.265	0.00011
4172.024	0.00001
4172.784	-0.00009
4173.544	-0.00005
4174.304	-0.00010
4175.064	0.00002
4175.824	0.00015
4176.585	-0.00010
4177.345	0.00012
4178.106	-0.00017
4178.866	0.00009
4179.627	0.00017
4180.388	0.00016
4181.150	-0.00009
4181.911	0.00027
4182.672	-0.00012
4183.434	-0.00006
4184.196	0.00003
4184.957	0.00008
4185.719	-0.00009
4186.481	0.00015
4187.244	-0.00010
4188.006	0.00001
4188.768	0.00006
4189.531	-0.00004
4190.294	0.00008
4191.057	-0.00002
4191.820	-0.00022
4192.583	0.00020
4193.346	0.00017
4194.109	-0.00005
4194.873	0.00002
4195.637	0.00013
4196.400	0.00002
4197.164	0.00013
4197.928	0.00005
4198.692	-0.00000
4199.457	-0.00011
4200.221	0.00013
4200.986	-0.00013
4201.750	-0.00005
4202.515	0.00011
4203.280	-0.00013
4204.045	0.00001
4204.810	0.00005
4205.576	0.00001
4206.341	0.00004
4207.107	0.00006
4207.872	-0.00013
4208.638	0.00000
4209.404	0.00009
4210.170	0.00009
4210.937	0.00014
4211.703	0.00001
4212.470	0.00000
4213.236	-0.00006
4214.003	0.00007
4214.770	-0.00014
4215.537	-0.00001
4216.304	0.00006
4217.071	0.00010
4217.839	0.00005
4218.606	-0.00000
4219.374	0.00008
4220.142	0.00011
4220.910	0.00008
4221.678	0.00008
4222.446	0.00011
4223.214	0.00012
4223.983	0.00011
4224.751	0.00005
4225.520	0.00016
4226.289	0.00001
4227.058	-0.00010
4227.827	-0.00005
4228.596	0.00008
4229.366	0.00016
4230.135	0.00013
4230.905	-0.00001
4231.674	-0.00002
4232.444	0.00003
4233.214	0.00010
4233.984	0.00008
4234.755	0.00002
4235.525	-0.00010
4236.296	-0.00015
4237.066	0.00008
4237.837	-0.00026
4238.608	0.00008
4239.379	0.00027
4240.150	-0.00004
4240.922	0.00005
4241.693	-0.00001
4242.465	-0.00001
4243.236	0.00008
4244.008	-0.00007
4244.780	-0.00017
4245.552	0.00016
4246.325	0.00016
4247.097	0.00014
4247.869	-0.00010
4248.642	-0.00009
4249.415	0.00006
4250.188	0.00004
4250.961	-0.00008
4251.734	0.00010
4252.507	-0.00002
4253.280	-0.00015
4254.054	-0.00008
4254.828	-0.00010
4255.601	-0.00007
4256.375	-0.00005
4257.149	-0.00011
4257.924	0.00014
4258.698	0.00004
4259.472	0.00010
4260.247	0.00007
4261.022	0.00010
4261.796	0.00002
4262.571	0.00003
4263.346	0.00012
4264.122	0.00014
4264.897	-0.00008
4265.673	0.00002
4266.448	0.00007
4267.224	-0.00010
4268.000	-0.00003
4268.776	0.00012
4269.552	0.00023
4270.328	0.00002
4271.105	0.00020
4271.881	0.00017
4272.658	0.00013
4273.434	0.00003
4274.211	-0.00004
4274.988	-0.00004
4275.766	-0.00007
4276.543	0.00007
4277.320	0.00017
4278.098	0.00009
4278.876	-0.00008
4279.653	0.00008
4280.431	-0.00017
4281.209	0.00003
4281.988	0.00016
4282.766	0.00010
4283.545	-0.00012
4284.323	-0.00002
4285.102	-0.00015
4285.881	-0.00002
4286.660	0.00004
4287.439	0.00008
4288.218	-0.00003
4288.997	0.00006
4289.777	-0.00006
4290.557	0.00002
4291.336	-0.00001
4292.116	-0.00001
4292.896	0.00007
4293.676	0.00007
4294.457	0.00019
4295.237	0.00001
4296.018	-0.00002
4296.798	0.00008
4297.579	0.00011
4298.360	-0.00004
4299.141	-0.00006
4299.922	0.00009
4300.704	0.00007
4301.485	0.00003
4302.267	-0.00001
4303.049	-0.00009
4303.830	-0.00013
4304.612	-0.00012
4305.395	0.00005
4306.177	0.00014
4306.959	-0.00009
4307.742	-0.00008
4308.524	-0.00006
4309.307	0.00009
4310.090	-0.00009
4310.873	0.00002
4311.656	-0.00014
4312.439	0.00007
4313.223	0.00008
4314.006	0.00010
4314.790	0.00001
4315.574	0.00001
4316.358	-0.00004
4317.142	-0.00000
4317.926	-0.00004
4318.710	0.00005
4319.495	-0.00004
4320.280	-0.00001
4321.064	0.00002
4321.849	0.00001
4322.634	0.00003
4323.419	0.00010
4324.204	-0.00000
4324.990	-0.00009
4325.775	-0.00013
4326.561	-0.00000
4327.347	0.00000
4328.133	-0.00007
4328.919	-0.00008
4329.705	0.00009
4330.491	-0.00008
4331.277	0.00003
4332.064	-0.00004
4332.851	0.00009
4333.637	0.00013
4334.424	-0.00006
4335.211	-0.00005
4335.999	-0.00011
4336.786	-0.00003
4337.573	0.00003
4338.361	-0.00009
4339.149	-0.00001
4339.936	0.00016
4340.724	0.00012
4341.513	0.00016
4342.301	0.00019
4343.089	0.00011
4343.878	0.00003
4344.666	-0.00006
4345.455	0.00004
4346.244	-0.00000
4347.033	0.00001
4347.822	-0.00007
4348.611	-0.00013
4349.401	0.00015
4350.190	-0.00006
4350.980	-0.00006
4351.770	0.00002
4352.560	-0.00002
4353.350	0.00010
4354.140	-0.00006
4354.930	-0.00005
4355.721	0.00014
4356.511	-0.00000
4357.302	-0.00008
4358.093	-0.00011
4358.884	0.00001
4359.675	-0.00014
4360.466	-0.00008
4361.257	-0.00015
4362.049	-0.00004
4362.840	-0.00002
4363.632	-0.00005
4364.424	-0.00002
4365.216	-0.00008
4366.008	0.00001
4366.800	-0.00014
4367.593	0.00008
4368.385	0.00009
4369.178	0.00000
4369.971	-0.00009
4370.764	0.00015
4371.557	0.00002
4372.350	0.00006
4373.143	0.00010
4373.937	-0.00005
4374.730	-0.00001
4375.524	0.00005
4376.318	-0.00004
4377.112	-0.00003
4377.906	0.00001
4378.700	-0.00000
4379.494	-0.00010
4380.289	0.00008
4381.083	0.00002
4381.878	0.00000
4382.673	-0.00009
4383.468	-0.00002
4384.263	-0.00007
4385.058	-0.00004
4385.854	-0.00008
4386.649	0.00003
4387.445	-0.00003
4388.241	0.00020
4389.037	-0.00007
4389.833	-0.00006
4390.629	0.00001
4391.425	-0.00009
4392.222	-0.00013
4393.018	0.00005
4393.815	0.00007
4394.612	0.00003
4395.409	-0.00009
4396.206	-0.00002
4397.003	-0.00003
4397.800	-0.00004
4398.598	-0.00006
4399.395	0.00006
4400.193	-0.00004
4400.991	0.00008
4401.789	-0.00007
4402.587	-0.00011
4403.385	-0.00003
4404.184	0.00007
4404.982	-0.00006
4405.781	0.00012
4406.580	0.00002
4407.378	0.00017
4408.178	-0.00004
4408.977	0.00004
4409.776	-0.00006
4410.575	0.00004
4411.375	-0.00004
4412.175	-0.00004
4412.974	-0.00009
4413.774	-0.00007
4414.574	-0.00001
4415.375	0.00011
4416.175	0.00002
4416.975	0.00005
4417.776	-0.00001
4418.577	0.00012
4419.378	0.00001
4420.179	-0.00005
4420.980	0.00006
4421.781	0.00010
4422.582	-0.00000
4423.384	-0.00010
4424.185	0.00007
4424.987	-0.00013
4425.789	0.00002
4426.591	0.00007
4427.393	0.00003
4428.196	0.00007
4428.998	0.00001
4429.800	-0.00010
4430.603	0.00005
4431.406	-0.00001
4432.209	-0.00010
4433.012	0.00000
4433.815	0.00002
4434.618	0.00006
4435.422	-0.00002
4436.225	0.00006
4437.029	0.00005
4437.833	-0.00009
4438.637	0.00006
4439.441	-0.00001
4440.245	-0.00004
4441.050	-0.00004
4441.854	-0.00011
4442.659	-0.00005
4443.464	-0.00001
4444.268	-0.00005
4445.073	-0.00001
4445.879	0.00001
4446.684	0.00001
4447.489	-0.00002
4448.295	0.00003
4449.101	-0.00000
4449.906	0.00010
4450.712	-0.00010
4451.518	0.00002
4452.324	-0.00001
4453.131	-0.00017
4453.937	0.00005
4454.744	0.00003
4455.551	0.00003
4456.357	0.00010
4457.164	0.00002
4457.971	-0.00003
4458.779	-0.00003
4459.586	0.00001
4460.393	0.00001
4461.201	0.00002
4462.009	-0.00011
4462.817	0.00001
4463.625	-0.00001
4464.433	0.00006
4465.241	0.00013
4466.050	-0.00007
4466.858	-0.00008
4467.667	-0.00003
4468.476	-0.00008
4469.284	-0.00004
4470.093	-0.00006
4470.903	-0.00014
4471.712	0.00005
4472.521	-0.00006
4473.331	0.00003
4474.141	-0.00002
4474.950	0.00008
4475.760	-0.00014
4476.571	-0.00009
4477.381	-0.00011
4478.191	-0.00003
4479.002	-0.00008
4479.812	0.00006
4480.623	-0.00011
4481.434	0.00003
4482.245	-0.00010
4483.056	0.00005
4483.867	-0.00005
4484.679	0.00000
4485.490	-0.00002
4486.302	0.00006
4487.114	0.00006
4487.925	0.00003
4488.737	-0.00003
4489.550	-0.00002
4490.362	-0.00006
4491.174	-0.00008
4491.987	-0.00007
4492.800	-0.00004
4493.612	0.00003
4494.425	0.00001
4495.238	-0.00004
4496.052	0.00001
4496.865	-0.00000
4497.678	0.00011
4498.492	0.00008
4499.306	0.00002
4500.120	-0.00019
4500.934	-0.00002
4501.748	0.00001
4502.562	-0.00011
4503.376	0.00004
4504.191	-0.00009
4505.006	-0.00002
4505.820	-0.00009
4506.635	0.00012
4507.450	-0.00003
4508.265	-0.00003
4509.081	-0.00014
4509.896	0.00001
4510.712	0.00004
4511.527	-0.00006
4512.343	-0.00004
4513.159	0.00003
4513.975	-0.00005
4514.791	0.00002
4515.608	-0.00001
4516.424	-0.00016
4517.241	-0.00008
4518.058	-0.00004
4518.874	-0.00009
4519.691	-0.00001
4520.508	-0.00009
4521.326	-0.00005
4522.143	-0.00007
4522.961	-0.00007
4523.778	-0.00010
4524.596	0.00004
4525.414	-0.00005
4526.232	-0.00010
4527.050	-0.00009
4527.868	-0.00000
4528.687	-0.00009
4529.505	0.00007
4530.324	0.00010
4531.143	-0.00008
4531.962	-0.00004
4532.781	0.00007
4533.600	0.00004
4534.419	0.00004
4535.239	-0.00012
4536.058	0.00003
4536.878	0.00002
4537.698	-0.00007
4538.518	-0.00000
4539.338	0.00004
4540.158	0.00002
4540.979	0.00001
4541.799	-0.00004
4542.620	-0.00004
4543.440	-0.00003
4544.261	0.00007
4545.082	-0.00001
4545.904	-0.00002
4546.725	0.00002
4547.546	-0.00010
4548.368	0.00003
4549.189	-0.00002
4550.011	0.00002
4550.833	0.00005
4551.655	-0.00005
4552.477	-0.00003
4553.300	-0.00003
4554.122	0.00000
4554.945	0.00004
4555.767	-0.00003
4556.590	0.00006
4557.413	0.00002
4558.236	-0.00009
4559.060	-0.00009
4559.883	-0.00005
4560.706	-0.00003
4561.530	-0.00004
4562.354	0.00001
4563.178	-0.00009
4564.002	-0.00015
4564.826	-0.00009
4565.650	-0.00002
4566.474	0.00003
4567.299	-0.00009
4568.124	-0.00007
4568.948	0.00000
4569.773	-0.00000
4570.598	-0.00002
4571.424	-0.00002
4572.249	0.00006
4573.074	0.00007
4573.900	-0.00009
4574.726	-0.00001
4575.551	0.00006
4576.377	-0.00004
4577.204	-0.00000
4578.030	-0.00008
4578.856	-0.00001
4579.683	0.00002
4580.509	0.00000
4581.336	0.00004
4582.163	0.00004
4582.990	-0.00003
4583.817	0.00002
4584.644	0.00001
4585.472	-0.00006
4586.299	0.00009
4587.127	0.00000
4587.955	-0.00018
4588.782	-0.00006
4589.610	-0.00002
4590.439	0.00005
4591.267	-0.00009
4592.095	0.00004
4592.924	-0.00011
4593.753	-0.00008
4594.581	-0.00000
4595.410	-0.00004
4596.240	-0.00001
4597.069	0.00003
4597.898	0.00005
4598.728	0.00005
4599.557	-0.00003
4600.387	-0.00005
4601.217	-0.00004
4602.047	-0.00014
4602.877	-0.00003
4603.707	0.00002
4604.537	-0.00007
4605.368	-0.00008
4606.199	0.00004
4607.029	-0.00009
4607.860	0.00005
4608.691	-0.00002
4609.523	-0.00008
4610.354	-0.00005
4611.185	0.00013
4612.017	-0.00002
4612.848	0.00002
4613.680	-0.00004
4614.512	-0.00004
4615.344	-0.00011
4616.177	0.00002
4617.009	-0.00002
4617.841	0.00006
4618.674	-0.00009
4619.507	-0.00002
4620.340	0.00003
4621.172	0.00004
4622.006	-0.00009
4622.839	0.00005
4623.672	0.00006
4624.506	0.00002
4625.339	0.00001
4626.173	-0.00003
4627.007	-0.00010
4627.841	0.00006
4628.675	-0.00003
4629.510	-0.00014
4630.344	-0.00009
4631.178	0.00002
4632.013	-0.00004
4632.848	-0.00003
4633.683	0.00008
4634.518	-0.00007
4635.353	0.00005
4636.188	0.00000
4637.024	0.00002
4637.860	-0.00006
4638.695	0.00004
4639.531	0.00001
4640.367	0.00002
4641.203	0.00001
4642.039	-0.00001
4642.876	0.00008
4643.712	-0.00009
4644.549	-0.00012
4645.386	-0.00001
4646.223	-0.00005
4647.060	-0.00001
4647.897	0.00002
4648.734	-0.00003
4649.571	-0.00005
4650.409	-0.00011
4651.247	-0.00005
4652.084	0.00000
4652.922	0.00005
4653.760	-0.00001
4654.599	0.00002
4655.437	0.00014
4656.275	-0.00005
4657.114	0.00004
4657.953	-0.00014
4658.792	-0.00008
4659.630	-0.00011
4660.470	-0.00007
4661.309	-0.00005
4662.148	0.00005
4662.988	-0.00003
4663.827	-0.00002
4664.667	-0.00004
4665.507	-0.00004
4666.347	-0.00001
4667.187	0.00003
4668.027	-0.00002
4668.868	-0.00004
4669.708	-0.00000
4670.549	-0.00002
4671.390	-0.00010
4672.231	-0.00002
4673.072	-0.00005
4673.913	-0.00006
4674.754	-0.00004
4675.596	-0.00004
4676.437	-0.00004
4677.279	0.00007
4678.121	-0.00004
4678.963	0.00003
4679.805	-0.00007
4680.647	0.00001
4681.489	-0.00010
4682.332	-0.00003
4683.174	-0.00006
4684.017	-0.00005
4684.860	-0.00008
4685.703	-0.00001
4686.546	-0.00007
4687.390	-0.00003
4688.233	-0.00005
4689.076	-0.00009
4689.920	-0.00003
4690.764	-0.00002
4691.608	-0.00001
4692.452	-0.00003
4693.296	-0.00007
4694.140	0.00010
4694.985	-0.00004
4695.829	-0.00000
4696.674	-0.00004
4697.519	-0.00003
4698.364	0.00007
4699.209	-0.00004
4700.054	-0.00004
4700.899	-0.00001
4701.745	-0.00002
4702.591	0.00003
4703.436	-0.00010
4704.282	-0.00005
4705.128	-0.00001
4705.974	-0.00013
4706.820	-0.00003
4707.667	-0.00005
4708.513	-0.00007
4709.360	-0.00005
4710.207	-0.00003
4711.054	-0.00005
4711.901	-0.00001
4712.748	0.00001
4713.595	-0.00001
4714.443	-0.00008
4715.290	-0.00005
4716.138	0.00007
4716.986	-0.00003
4717.834	-0.00005
4718.682	-0.00005
4719.530	-0.00011
4720.378	-0.00004
4721.227	-0.00001
4722.075	-0.00003
4722.924	0.00005
4723.773	0.00002
4724.622	0.00003
4725.471	-0.00003
4726.320	-0.00005
4727.170	0.00002
4728.019	0.00004
4728.869	-0.00005
4729.719	0.00004
4730.568	-0.00001
4731.419	-0.00002
4732.269	-0.00007
4733.119	0.00001
4733.969	-0.00002
4734.820	-0.00010
4735.671	-0.00004
4736.521	0.00006
4737.372	-0.00003
4738.223	-0.00013
4739.075	-0.00001
4739.926	-0.00005
4740.777	-0.00007
4741.629	-0.00007
4742.481	-0.00005
4743.333	0.00001
4744.185	-0.00000
4745.037	-0.00010
4745.889	-0.00004
4746.741	-0.00004
4747.594	0.00000
4748.446	0.00007
4749.299	0.00004
4750.152	-0.00003
4751.005	-0.00004
4751.858	-0.00008
4752.712	0.00001
4753.565	0.00001
4754.418	-0.00009
4755.272	-0.00005
4756.126	0.00002
4756.980	0.00009
4757.834	-0.00012
4758.688	0.00002
4759.542	0.00001
4760.397	-0.00006
4761.251	0.00012
4762.106	-0.00010
4762.961	-0.00004
4763.816	-0.00002
4764.671	-0.00005
4765.526	-0.00001
4766.382	-0.00001
4767.237	-0.00005
4768.093	-0.00006
4768.949	0.00013
4769.804	0.00000
4770.660	-0.00011
4771.517	0.00015
4772.373	0.00003
4773.229	-0.00006
4774.086	0.00002
4774.943	-0.00008
4775.799	-0.00001
4776.656	-0.00007
4777.513	-0.00009
4778.370	-0.00000
4779.228	0.00003
4780.085	-0.00004
4780.943	-0.00000
4781.801	-0.00001
4782.658	-0.00004
4783.516	-0.00001
4784.374	-0.00003
4785.233	-0.00004
4786.091	0.00004
4786.949	0.00000
4787.808	-0.00006
4788.667	-0.00001
4789.526	-0.00007
4790.385	0.00001
4791.244	0.00005
4792.103	-0.00006
4792.963	-0.00007
4793.822	0.00004
4794.682	0.00001
4795.541	-0.00007
4796.401	-0.00009
4797.261	-0.00008
4798.122	0.00002
4798.982	-0.00004
4799.842	0.00000
4800.703	-0.00003
4801.564	0.00007
4802.424	0.00002
4803.285	-0.00004
4804.147	-0.00000
4805.008	-0.00004
4805.869	-0.00004
4806.731	-0.00006
4807.592	-0.00004
4808.454	-0.00007
4809.316	-0.00009
4810.178	-0.00002
4811.040	-0.00004
4811.902	-0.00005
4812.765	0.00001
4813.627	0.00009
4814.490	-0.00017
4815.352	0.00003
4816.215	-0.00005
4817.078	-0.00002
4817.942	0.00001
4818.805	-0.00000
4819.668	-0.00001
4820.532	0.00003
4821.396	-0.00000
4822.259	-0.00001
4823.123	0.00004
4823.987	-0.00004
4824.852	-0.00011
4825.716	-0.00004
4826.580	-0.00010
4827.445	-0.00002
4828.310	-0.00008
4829.175	-0.00005
4830.040	-0.00002
4830.905	-0.00000
4831.770	-0.00007
4832.635	-0.00001
4833.501	0.00005
4834.367	0.00000
4835.232	-0.00003
4836.098	-0.00000
4836.964	-0.00001
4837.830	-0.00009
4838.697	-0.00002
4839.563	0.00000
4840.430	0.00001
4841.296	0.00005
4842.163	0.00009
4843.030	0.00001
4843.897	-0.00004
4844.764	0.00000
4845.632	-0.00001
4846.499	-0.00007
4847.367	0.00004
4848.235	-0.00003
4849.102	0.00000
4849.970	0.00003
4850.838	0.00002
4851.707	0.00001
4852.575	-0.00002
4853.444	-0.00001
4854.312	0.00001
4855.181	-0.00008
4856.050	-0.00003
4856.919	-0.00004
4857.788	0.00001
4858.657	-0.00008
4859.527	-0.00007
4860.396	-0.00006
4861.266	0.00001
4862.136	-0.00000
4863.006	-0.00010
4863.876	0.00001
4864.746	0.00005
4865.616	-0.00008
4866.487	0.00006
4867.357	-0.00007
4868.228	-0.00003
4869.099	0.00004
4869.970	0.00001
4870.841	-0.00002
4871.712	-0.00007
4872.584	-0.00001
4873.455	-0.00003
4874.327	-0.00001
4875.198	0.00000
4876.070	0.00008
4876.942	-0.00006
4877.815	-0.00001
4878.687	-0.00004
4879.559	-0.00004
4880.432	0.00001
4881.304	-0.00007
4882.177	-0.00005
4883.050	0.00001
4883.923	0.00006
4884.796	0.00003
4885.670	0.00007
4886.543	-0.00001
4887.417	-0.00007
4888.290	-0.00001
4889.164	-0.00006
4890.038	-0.00005
4890.912	-0.00004
4891.787	-0.00003
4892.661	-0.00005
4893.535	-0.00006
4894.410	-0.00000
4895.285	-0.00005
4896.160	-0.00003
4897.035	-0.00008
4897.910	0.00005
4898.785	-0.00009
4899.660	-0.00001
4900.536	-0.00012
4901.412	0.00006
4902.287	-0.00001
4903.163	-0.00004
4904.039	-0.00002
4904.916	-0.00005
4905.792	-0.00005
4906.668	-0.00001
4907.545	-0.00002
4908.422	-0.00006
4909.298	-0.00004
4910.175	0.00001
4911.052	-0.00001
4911.930	-0.00002
4912.807	-0.00004
4913.685	0.00003
4914.562	-0.00006
4915.440	-0.00004
4916.318	-0.00001
4917.196	-0.00001
4918.074	0.00006
4918.952	-0.00000
4919.831	-0.00007
4920.709	-0.00013
4921.588	0.00003
4922.466	-0.00008
4923.345	-0.00007
4924.224	-0.00004
4925.104	-0.00004
4925.983	0.00001
4926.862	0.00007
4927.742	-0.00003
4928.622	-0.00009
4929.501	0.00004
4930.381	-0.00003
4931.261	-0.00000
4932.142	-0.00008
4933.022	0.00005
4933.902	-0.00002
4934.783	-0.00006
4935.664	-0.00006
4936.545	-0.00008
4937.426	-0.00003
4938.307	-0.00007
4939.188	-0.00002
4940.069	-0.00006
4940.951	-0.00002
4941.833	0.00001
4942.714	-0.00003
4943.596	-0.00006
4944.478	-0.00004
4945.360	-0.00005
4946.243	-0.00007
4947.125	-0.00004
4948.008	-0.00004
4948.890	-0.00006
4949.773	-0.00005
4950.656	-0.00009
4951.539	-0.00006
4952.422	0.00000
4953.306	-0.00010
4954.189	-0.00004
4955.073	-0.00005
4955.957	0.00002
4956.840	-0.00005
4957.724	-0.00000
4958.609	-0.00011
4959.493	-0.00005
4960.377	-0.00004
4961.262	0.00002
4962.146	-0.00004
4963.031	0.00003
4963.916	-0.00001
4964.801	-0.00001
4965.686	-0.00008
4966.571	-0.00004
4967.457	0.00003
4968.342	-0.00001
4969.228	-0.00006
4970.114	-0.00004
4971.000	-0.00005
4971.886	-0.00004
4972.772	0.00003
4973.658	-0.00001
4974.545	-0.00001
4975.431	-0.00000
4976.318	-0.00002
4977.205	-0.00003
4978.092	-0.00007
4978.979	-0.00007
4979.866	-0.00002
4980.754	-0.00000
4981.641	0.00000
4982.529	-0.00003
4983.417	-0.00002
4984.305	-0.00007
4985.193	-0.00005
4986.081	-0.00004
4986.969	0.00001
4987.857	-0.00003
4988.746	-0.00008
4989.635	-0.00000
4990.523	-0.00000
4991.412	0.00001
4992.301	-0.00005
4993.191	0.00000
4994.080	-0.00004
4994.969	0.00004
4995.859	-0.00001
4996.749	-0.00010
4997.638	-0.00001
4998.528	-0.00005
4999.419	-0.00006
5000.309	-0.00005
5001.199	-0.00006
5002.090	0.00002
5002.980	-0.00000
5003.871	-0.00004
5004.762	-0.00004
5005.653	0.00001
5006.544	-0.00007
5007.435	0.00002
5008.327	0.00001
5009.218	-0.00011
5010.110	-0.00001
5011.002	-0.00004
5011.894	-0.00003
5012.786	-0.00000
5013.678	-0.00002
5014.570	-0.00009
5015.463	-0.00005
5016.355	-0.00004
5017.248	-0.00001
5018.141	-0.00003
5019.034	-0.00006
5019.927	-0.00012
5020.820	-0.00005
5021.713	0.00001
5022.607	-0.00002
5023.500	-0.00001
5024.394	-0.00001
5025.288	-0.00004
5026.182	-0.00007
5027.076	-0.00006
5027.970	0.00005
5028.865	-0.00003
5029.759	-0.00007
5030.654	-0.00001
5031.549	0.00006
5032.444	0.00001
5033.339	-0.00002
5034.234	-0.00008
5035.129	-0.00010
5036.025	-0.00012
5036.920	-0.00005
5037.816	-0.00003
5038.712	-0.00002
5039.608	0.00002
5040.504	-0.00006
5041.400	-0.00004
5042.296	0.00000
5043.193	-0.00005
5044.089	-0.00004
5044.986	0.00001
5045.883	0.00002
5046.780	-0.00008
5047.677	-0.00001
5048.574	-0.00007
5049.472	0.00001
5050.369	-0.00003
5051.267	-0.00005
5052.165	-0.00007
5053.063	0.00000
5053.961	0.00000
5054.859	-0.00005
5055.757	-0.00004
5056.656	-0.00003
5057.554	-0.00008
5058.453	-0.00004
5059.352	-0.00001
5060.251	-0.00007
5061.150	-0.00009
5062.049	-0.00001
