#Measured with ALFOSC, zero-transmission level has low accuracy
5000.0  -0.07
5005.0  -0.07
5010.0   0.05
5015.0  -0.08
5020.0  -0.02
5025.0  -0.10
5030.0  -0.09
5035.0   0.03
5040.0  -0.14
5045.0  -0.14
5050.0  -0.12
5055.0  -0.11
5060.0  -0.13
5065.0  -0.08
5070.0  -0.08
5075.0  -0.09
5080.0  -0.09
5085.0  -0.07
5090.0  -0.12
5095.0  -0.14
5100.0  -0.16
5105.0  -0.19
5110.0  -0.14
5115.0  -0.08
5120.0  -0.06
5125.0  -0.10
5130.0  -0.07
5135.0  -0.12
5140.0  -0.12
5145.0  -0.01
5150.0  -0.06
5155.0  -0.08
5160.0  -0.18
5165.0  -0.14
5170.0  -0.09
5175.0  -0.15
5180.0  -0.17
5185.0  -0.00
5190.0  -0.14
5195.0  -0.16
5200.0  -0.10
5205.0  -0.12
5210.0  -0.19
5215.0  -0.15
5220.0  -0.19
5225.0  -0.17
5230.0  -0.25
5235.0  -0.22
5240.0  -0.22
5245.0  -0.21
5250.0  -0.23
5255.0  -0.26
5260.0  -0.19
5265.0  -0.19
5270.0  -0.18
5275.0  -0.14
5280.0  -0.13
5285.0  -0.12
5290.0  -0.02
5295.0  -0.03
5300.0  -0.01
5305.0   0.03
5310.0   0.02
5315.0   0.05
5320.0   0.09
5325.0   0.04
5330.0   0.06
5335.0   0.04
5340.0   0.05
5345.0   0.09
5350.0   0.05
5355.0   0.06
5360.0   0.03
5365.0   0.03
5370.0   0.10
5375.0   0.08
5380.0   0.03
5385.0   0.04
5390.0   0.06
5395.0   0.05
5400.0   0.07
5405.0   0.04
5410.0   0.04
5415.0   0.07
5420.0   0.03
5425.0   0.07
5430.0   0.05
5435.0   0.02
5440.0   0.02
5445.0   0.09
5450.0   0.08
5455.0   0.09
5460.0   0.03
5465.0   0.07
5470.0   0.08
5475.0   0.10
5480.0   0.13
5485.0   0.14
5490.0   0.13
5495.0   0.12
5500.0   0.15
5505.0   0.09
5510.0   0.11
5515.0   0.13
5520.0   0.13
5525.0   0.12
5530.0   0.14
5535.0   0.11
5540.0   0.12
5545.0   0.06
5550.0   0.12
5555.0   0.12
5560.0   0.12
5565.0   0.11
5570.0   0.11
5575.0   0.08
5580.0   0.10
5585.0   0.05
5590.0   0.06
5595.0   0.08
5600.0   0.06
5605.0   0.09
5610.0   0.11
5615.0   0.07
5620.0   0.05
5625.0   0.05
5630.0   0.07
5635.0   0.07
5640.0   0.03
5645.0   0.05
5650.0   0.03
5655.0   0.03
5660.0   0.02
5665.0   0.02
5670.0   0.03
5675.0  -0.02
5680.0   0.00
5685.0  -0.02
5690.0  -0.02
5695.0   0.02
5700.0  -0.00
5705.0  -0.03
5710.0  -0.00
5715.0  -0.00
5720.0  -0.02
5725.0  -0.01
5730.0  -0.00
5735.0  -0.04
5740.0  -0.02
5745.0  -0.02
5750.0  -0.02
5755.0  -0.03
5760.0  -0.02
5765.0  -0.05
5770.0  -0.03
5775.0  -0.04
5780.0  -0.03
5785.0  -0.03
5790.0  -0.05
5795.0  -0.04
5800.0  -0.03
5805.0  -0.04
5810.0  -0.06
5815.0  -0.02
5820.0  -0.06
5825.0  -0.04
5830.0  -0.05
5835.0  -0.06
5840.0  -0.07
5845.0  -0.07
5850.0  -0.06
5855.0  -0.04
5860.0  -0.05
5865.0  -0.03
5870.0  -0.07
5875.0  -0.07
5880.0  -0.06
5885.0  -0.07
5890.0  -0.06
5895.0  -0.06
5900.0  -0.06
5905.0  -0.04
5910.0  -0.07
5915.0  -0.06
5920.0  -0.04
5925.0  -0.07
5930.0  -0.11
5935.0  -0.06
5940.0  -0.07
5945.0  -0.06
5950.0  -0.07
5955.0  -0.08
5960.0  -0.05
5965.0  -0.05
5970.0  -0.06
5975.0  -0.09
5980.0  -0.03
5985.0  -0.07
5990.0  -0.05
5995.0  -0.06
6000.0  -0.03
6005.0  -0.04
6010.0  -0.05
6015.0  -0.04
6020.0  -0.05
6025.0  -0.04
6030.0  -0.04
6035.0  -0.03
6040.0  -0.01
6045.0  -0.02
6050.0  -0.04
6055.0  -0.02
6060.0  -0.01
6065.0  -0.02
6070.0  -0.00
6075.0  -0.01
6080.0   0.01
6085.0   0.01
6090.0   0.00
6095.0   0.00
6100.0   0.02
6105.0   0.05
6110.0   0.02
6115.0   0.02
6120.0   0.02
6125.0   0.03
6130.0   0.03
6135.0   0.04
6140.0   0.05
6145.0   0.00
6150.0   0.04
6155.0   0.04
6160.0   0.02
6165.0   0.07
6170.0   0.05
6175.0   0.06
6180.0   0.07
6185.0   0.06
6190.0   0.07
6195.0   0.05
6200.0   0.09
6205.0   0.09
6210.0   0.05
6215.0   0.09
6220.0   0.05
6225.0   0.08
6230.0   0.05
6235.0   0.07
6240.0   0.06
6245.0   0.05
6250.0   0.06
6255.0   0.08
6260.0   0.08
6265.0   0.07
6270.0   0.06
6275.0   0.06
6280.0   0.05
6285.0   0.06
6290.0   0.09
6295.0   0.07
6300.0   0.06
6305.0   0.05
6310.0   0.06
6315.0   0.06
6320.0   0.05
6325.0   0.08
6330.0   0.06
6335.0   0.04
6340.0   0.04
6345.0   0.05
6350.0   0.05
6355.0   0.05
6360.0   0.05
6365.0   0.04
6370.0   0.03
6375.0   0.03
6380.0   0.04
6385.0   0.02
6390.0   0.02
6395.0   0.06
6400.0   0.04
6405.0   0.02
6410.0   0.02
6415.0  -0.00
6420.0  -0.01
6425.0   0.01
6430.0   0.01
6435.0   0.03
6440.0   0.01
6445.0  -0.00
6450.0  -0.00
6455.0   0.01
6460.0   0.02
6465.0   0.02
6470.0  -0.01
6475.0   0.02
6480.0  -0.01
6485.0  -0.01
6490.0  -0.02
6495.0   0.00
6500.0  -0.00
6505.0   0.01
6510.0   0.00
6515.0  -0.02
6520.0  -0.04
6525.0  -0.03
6530.0  -0.02
6535.0   0.01
6540.0  -0.03
6545.0  -0.04
6550.0  -0.04
6555.0  -0.04
6560.0  -0.01
6565.0  -0.02
6570.0  -0.01
6575.0  -0.03
6580.0  -0.04
6585.0  -0.02
6590.0  -0.02
6595.0  -0.01
6600.0  -0.03
6605.0  -0.01
6610.0  -0.03
6615.0  -0.03
6620.0  -0.05
6625.0  -0.04
6630.0  -0.03
6635.0  -0.02
6640.0  -0.02
6645.0  -0.03
6650.0  -0.04
6655.0  -0.02
6660.0  -0.01
6665.0  -0.01
6670.0  -0.02
6675.0  -0.02
6680.0  -0.02
6685.0  -0.03
6690.0  -0.03
6695.0  -0.02
6700.0  -0.00
6705.0   0.00
6710.0  -0.03
6715.0  -0.01
6720.0  -0.04
6725.0  -0.02
6730.0   0.00
6735.0  -0.02
6740.0   0.00
6745.0  -0.03
6750.0  -0.01
6755.0   0.01
6760.0  -0.02
6765.0  -0.01
6770.0  -0.02
6775.0  -0.01
6780.0   0.01
6785.0   0.01
6790.0   0.01
6795.0   0.01
6800.0   0.01
6805.0   0.02
6810.0   0.02
6815.0   0.03
6820.0   0.02
6825.0   0.02
6830.0   0.02
6835.0   0.04
6840.0   0.04
6845.0   0.05
6850.0   0.03
6855.0   0.03
6860.0   0.04
6865.0   0.03
6870.0   0.06
6875.0   0.06
6880.0   0.06
6885.0   0.05
6890.0   0.06
6895.0   0.06
6900.0   0.06
6905.0   0.07
6910.0   0.08
6915.0   0.07
6920.0   0.08
6925.0   0.07
6930.0   0.08
6935.0   0.05
6940.0   0.08
6945.0   0.08
6950.0   0.09
6955.0   0.09
6960.0   0.09
6965.0   0.08
6970.0   0.09
6975.0   0.09
6980.0   0.11
6985.0   0.11
6990.0   0.11
6995.0   0.11
7000.0   0.12
7005.0   0.12
7010.0   0.12
7015.0   0.09
7020.0   0.12
7025.0   0.12
7030.0   0.13
7035.0   0.14
7040.0   0.14
7045.0   0.13
7050.0   0.13
7055.0   0.13
7060.0   0.15
7065.0   0.14
7070.0   0.15
7075.0   0.15
7080.0   0.15
7085.0   0.16
7090.0   0.18
7095.0   0.16
7100.0   0.17
7105.0   0.16
7110.0   0.17
7115.0   0.18
7120.0   0.17
7125.0   0.16
7130.0   0.19
7135.0   0.17
7140.0   0.17
7145.0   0.18
7150.0   0.20
7155.0   0.22
7160.0   0.22
7165.0   0.20
7170.0   0.22
7175.0   0.22
7180.0   0.21
7185.0   0.23
7190.0   0.24
7195.0   0.24
7200.0   0.25
7205.0   0.24
7210.0   0.26
7215.0   0.26
7220.0   0.27
7225.0   0.26
7230.0   0.30
7235.0   0.29
7240.0   0.33
7245.0   0.33
7250.0   0.34
7255.0   0.32
7260.0   0.35
7265.0   0.37
7270.0   0.38
7275.0   0.37
7280.0   0.38
7285.0   0.41
7290.0   0.40
7295.0   0.45
7300.0   0.46
7305.0   0.47
7310.0   0.49
7315.0   0.53
7320.0   0.56
7325.0   0.55
7330.0   0.58
7335.0   0.62
7340.0   0.63
7345.0   0.67
7350.0   0.70
7355.0   0.74
7360.0   0.78
7365.0   0.82
7370.0   0.83
7375.0   0.91
7380.0   0.93
7385.0   0.96
7390.0   1.03
7395.0   1.10
7400.0   1.16
7405.0   1.21
7410.0   1.31
7415.0   1.38
7420.0   1.45
7425.0   1.54
7430.0   1.60
7435.0   1.71
7440.0   1.81
7445.0   1.91
7450.0   2.06
7455.0   2.16
7460.0   2.30
7465.0   2.48
7470.0   2.62
7475.0   2.77
7480.0   2.91
7485.0   3.12
7490.0   3.33
7495.0   3.56
7500.0   3.78
7505.0   4.03
7510.0   4.23
7515.0   4.54
7520.0   4.82
7525.0   5.16
7530.0   5.43
7535.0   5.79
7540.0   6.13
7545.0   6.49
7550.0   6.92
7555.0   7.31
7560.0   7.75
7565.0   8.24
7570.0   8.69
7575.0   9.22
7580.0   9.77
7585.0  10.32
7590.0  10.87
7595.0  11.50
7600.0  12.14
7605.0  12.81
7610.0  13.51
7615.0  14.16
7620.0  14.90
7625.0  15.67
7630.0  16.43
7635.0  17.31
7640.0  18.09
7645.0  19.00
7650.0  19.82
7655.0  20.74
7660.0  21.71
7665.0  22.74
7670.0  23.72
7675.0  24.63
7680.0  25.70
7685.0  26.65
7690.0  27.77
7695.0  28.90
7700.0  30.00
7705.0  31.06
7710.0  32.15
7715.0  33.14
7720.0  34.37
7725.0  35.61
7730.0  36.71
7735.0  37.94
7740.0  39.11
7745.0  40.23
7750.0  41.31
7755.0  42.51
7760.0  43.65
7765.0  44.76
7770.0  45.88
7775.0  47.08
7780.0  48.20
7785.0  49.36
7790.0  50.38
7795.0  51.48
7800.0  52.37
7805.0  53.63
7810.0  54.53
7815.0  55.65
7820.0  56.59
7825.0  57.71
7830.0  58.58
7835.0  59.58
7840.0  60.46
7845.0  61.56
7850.0  62.19
7855.0  63.14
7860.0  63.97
7865.0  64.84
7870.0  65.63
7875.0  66.47
7880.0  67.08
7885.0  67.83
7890.0  68.59
7895.0  69.29
7900.0  70.05
7905.0  70.60
7910.0  71.23
7915.0  71.87
7920.0  72.53
7925.0  72.95
7930.0  73.69
7935.0  74.16
7940.0  74.62
7945.0  75.12
7950.0  75.65
7955.0  76.14
7960.0  76.50
7965.0  76.90
7970.0  77.39
7975.0  77.70
7980.0  78.36
7985.0  78.41
7990.0  78.83
7995.0  79.38
8000.0  79.72
8005.0  79.90
8010.0  80.16
8015.0  80.57
8020.0  80.86
8025.0  80.91
8030.0  81.52
8035.0  81.53
8040.0  81.97
8045.0  82.22
8050.0  82.25
8055.0  82.57
8060.0  82.76
8065.0  82.85
8070.0  83.21
8075.0  83.31
8080.0  83.61
8085.0  83.65
8090.0  84.13
8095.0  83.97
8100.0  83.94
8105.0  84.24
8110.0  84.45
8115.0  84.54
8120.0  84.82
8125.0  84.93
8130.0  84.94
8135.0  85.10
8140.0  85.08
8145.0  85.24
8150.0  85.42
8155.0  85.36
8160.0  85.52
8165.0  85.64
8170.0  85.72
8175.0  85.84
8180.0  85.56
8185.0  85.97
8190.0  86.13
8195.0  86.19
8200.0  86.12
8205.0  86.32
8210.0  86.20
8215.0  86.51
8220.0  86.49
8225.0  86.52
8230.0  86.57
8235.0  86.48
8240.0  86.59
8245.0  86.92
8250.0  86.71
8255.0  86.75
8260.0  86.75
8265.0  86.89
8270.0  87.06
8275.0  86.97
8280.0  86.93
8285.0  87.01
8290.0  86.91
8295.0  87.06
8300.0  87.02
8305.0  87.24
8310.0  87.19
8315.0  87.05
8320.0  87.08
8325.0  87.22
8330.0  87.20
8335.0  87.29
8340.0  87.29
8345.0  87.19
8350.0  87.16
8355.0  87.37
8360.0  87.33
8365.0  87.45
8370.0  87.37
8375.0  87.28
8380.0  87.50
8385.0  87.55
8390.0  87.51
8395.0  87.59
8400.0  87.63
8405.0  87.51
8410.0  87.42
8415.0  87.69
8420.0  87.48
8425.0  87.76
8430.0  87.76
8435.0  87.53
8440.0  87.67
8445.0  87.70
8450.0  87.73
8455.0  87.76
8460.0  87.62
8465.0  87.73
8470.0  87.68
8475.0  87.80
8480.0  87.74
8485.0  87.67
8490.0  87.85
8495.0  87.71
8500.0  87.91
8505.0  87.74
8510.0  87.88
8515.0  87.96
8520.0  87.80
8525.0  87.71
8530.0  87.71
8535.0  87.83
8540.0  87.79
8545.0  87.74
8550.0  87.91
8555.0  88.01
8560.0  88.03
8565.0  87.96
8570.0  87.91
8575.0  87.78
8580.0  88.03
8585.0  88.16
8590.0  87.80
8595.0  87.82
8600.0  87.97
8605.0  87.89
8610.0  87.90
8615.0  87.97
8620.0  88.02
8625.0  87.89
8630.0  88.18
8635.0  87.97
8640.0  88.01
8645.0  88.24
8650.0  87.86
8655.0  88.01
8660.0  87.99
8665.0  88.03
8670.0  88.13
8675.0  88.01
8680.0  87.96
8685.0  87.88
8690.0  87.95
8695.0  87.86
8700.0  88.03
8705.0  88.12
8710.0  88.09
8715.0  88.14
8720.0  88.14
8725.0  88.07
8730.0  88.18
8735.0  88.14
8740.0  87.89
8745.0  87.98
8750.0  88.01
8755.0  87.91
8760.0  87.94
8765.0  87.81
8770.0  88.14
8775.0  88.36
8780.0  88.02
8785.0  88.09
8790.0  88.03
8795.0  88.06
8800.0  88.15
8805.0  88.14
8810.0  88.08
8815.0  88.17
8820.0  88.01
8825.0  88.16
8830.0  88.09
8835.0  88.03
8840.0  88.06
8845.0  88.12
8850.0  88.08
8855.0  88.08
8860.0  88.22
8865.0  88.11
8870.0  87.95
8875.0  87.89
8880.0  88.04
8885.0  88.13
8890.0  88.08
8895.0  87.95
8900.0  87.84
8905.0  88.04
8910.0  87.98
8915.0  87.97
8920.0  87.95
8925.0  87.95
8930.0  88.05
8935.0  88.13
8940.0  87.81
8945.0  88.25
8950.0  88.08
8955.0  88.07
8960.0  88.01
8965.0  88.06
8970.0  88.03
8975.0  88.02
8980.0  88.13
8985.0  87.86
8990.0  88.13
8995.0  87.96
9000.0  87.87
9005.0  88.04
9010.0  87.99
9015.0  88.11
9020.0  88.06
9025.0  88.01
9030.0  87.81
9035.0  87.89
9040.0  87.88
9045.0  87.86
9050.0  88.09
9055.0  87.90
9060.0  88.03
9065.0  88.09
9070.0  88.03
9075.0  88.25
